# Averaged α,β-unsaturated n-aldehyde absorption cross sections using
# the average of crotonaldehyde cross sections by Lee et al. 2007 up to 225nm and
# unpublished highres data by Magneron 1999 above 225nm in the files
# crotonaldehyde_Lee07.abs and crotonaldehyde_Mag99.abs as well as 2-hexenal
# cross sections by Jiminez et al. 2007 in hexenal_Jim07.abs
# Mean is calculated using auxdata v0.7.1 (https://github.com/pb866/auxdata.git)
# where the mean outside the common data range is adjusted by an offset
# mean(all data) - mean(remaining data)
# and no data is used after the first negative value of the adjusted mean.
#
# λ/nm    σ/cm2
105.970  5.84e-17
105.990  5.73e-17
106.010  5.82e-17
106.030  5.69e-17
106.050  5.86e-17
106.070  5.58e-17
106.090  5.62e-17
106.110  5.73e-17
106.130  5.86e-17
106.150  5.76e-17
106.170  5.86e-17
106.190  6.03e-17
106.210  5.80e-17
106.230  5.90e-17
106.250  5.94e-17
106.270  5.90e-17
106.290  6.05e-17
106.310  5.99e-17
106.330  5.68e-17
106.350  5.90e-17
106.370  5.90e-17
106.390  6.06e-17
106.410  6.05e-17
106.430  5.68e-17
106.450  6.05e-17
106.470  5.91e-17
106.490  5.97e-17
106.510  5.93e-17
106.530  5.95e-17
106.550  6.00e-17
106.570  5.87e-17
106.590  5.83e-17
106.610  5.89e-17
106.630  6.09e-17
106.650  5.86e-17
106.670  6.19e-17
106.690  5.80e-17
106.710  5.89e-17
106.730  5.92e-17
106.750  5.95e-17
106.770  5.98e-17
106.790  6.01e-17
106.810  5.70e-17
106.830  6.03e-17
106.850  6.01e-17
106.870  5.93e-17
106.890  5.92e-17
106.910  5.88e-17
106.930  5.95e-17
106.950  5.93e-17
106.970  6.07e-17
106.990  5.74e-17
107.010  5.85e-17
107.030  5.83e-17
107.050  6.13e-17
107.070  5.99e-17
107.090  6.03e-17
107.110  5.93e-17
107.130  6.02e-17
107.150  5.97e-17
107.170  5.86e-17
107.190  5.77e-17
107.210  6.06e-17
107.230  5.91e-17
107.250  5.86e-17
107.270  5.80e-17
107.290  5.99e-17
107.310  5.83e-17
107.330  6.08e-17
107.350  6.16e-17
107.370  5.99e-17
107.390  6.05e-17
107.410  6.14e-17
107.430  5.98e-17
107.450  6.03e-17
107.470  6.01e-17
107.490  5.96e-17
107.510  5.96e-17
107.530  6.01e-17
107.550  5.96e-17
107.570  6.05e-17
107.590  6.03e-17
107.610  6.07e-17
107.630  5.85e-17
107.650  5.95e-17
107.670  5.82e-17
107.690  5.94e-17
107.710  6.00e-17
107.730  5.75e-17
107.750  5.96e-17
107.770  5.90e-17
107.790  5.81e-17
107.810  5.84e-17
107.830  5.95e-17
107.850  6.12e-17
107.870  5.96e-17
107.890  5.92e-17
107.910  6.13e-17
107.930  5.95e-17
107.950  5.85e-17
107.970  5.95e-17
107.990  5.99e-17
108.010  5.91e-17
108.030  6.12e-17
108.050  5.94e-17
108.070  6.01e-17
108.090  5.87e-17
108.110  6.07e-17
108.130  5.94e-17
108.150  5.79e-17
108.170  5.82e-17
108.190  5.72e-17
108.210  5.96e-17
108.230  5.85e-17
108.250  5.91e-17
108.270  6.07e-17
108.290  5.99e-17
108.310  6.06e-17
108.330  5.80e-17
108.350  5.89e-17
108.370  5.95e-17
108.390  5.96e-17
108.410  5.87e-17
108.430  5.88e-17
108.450  5.92e-17
108.470  5.97e-17
108.490  5.98e-17
108.510  6.00e-17
108.530  6.05e-17
108.550  5.86e-17
108.570  5.76e-17
108.590  5.87e-17
108.610  5.91e-17
108.630  5.94e-17
108.650  5.81e-17
108.670  5.83e-17
108.690  5.86e-17
108.710  5.79e-17
108.730  5.89e-17
108.750  5.83e-17
108.770  5.87e-17
108.790  5.96e-17
108.810  6.07e-17
108.830  6.39e-17
108.850  6.05e-17
108.870  5.86e-17
108.890  5.97e-17
108.910  5.80e-17
108.930  5.96e-17
108.950  5.99e-17
108.970  5.74e-17
108.990  5.86e-17
109.010  6.02e-17
109.030  5.86e-17
109.050  5.96e-17
109.070  5.97e-17
109.090  5.88e-17
109.110  5.92e-17
109.130  5.83e-17
109.150  5.97e-17
109.170  5.83e-17
109.190  5.86e-17
109.210  5.89e-17
109.230  5.91e-17
109.250  5.92e-17
109.270  5.85e-17
109.290  5.79e-17
109.310  5.85e-17
109.330  5.89e-17
109.350  5.84e-17
109.370  5.93e-17
109.390  5.81e-17
109.410  5.76e-17
109.430  5.97e-17
109.450  5.83e-17
109.470  5.79e-17
109.490  5.78e-17
109.510  5.79e-17
109.530  5.80e-17
109.550  5.81e-17
109.570  5.92e-17
109.590  5.81e-17
109.610  5.82e-17
109.630  5.73e-17
109.650  5.79e-17
109.670  5.78e-17
109.690  5.85e-17
109.710  5.74e-17
109.730  5.76e-17
109.750  5.75e-17
109.770  5.77e-17
109.790  5.81e-17
109.810  5.74e-17
109.830  5.73e-17
109.850  5.81e-17
109.870  5.77e-17
109.890  5.78e-17
109.910  5.86e-17
109.930  5.69e-17
109.950  5.78e-17
109.970  5.56e-17
109.990  5.79e-17
110.010  5.80e-17
110.030  5.69e-17
110.050  5.72e-17
110.070  5.86e-17
110.090  5.69e-17
110.110  5.83e-17
110.130  5.73e-17
110.150  5.68e-17
110.170  5.70e-17
110.190  5.86e-17
110.210  5.76e-17
110.230  5.76e-17
110.250  5.93e-17
110.270  5.71e-17
110.290  5.94e-17
110.310  5.87e-17
110.330  5.84e-17
110.350  5.78e-17
110.370  5.69e-17
110.390  5.74e-17
110.410  5.69e-17
110.430  5.75e-17
110.450  5.73e-17
110.470  5.85e-17
110.490  5.70e-17
110.510  5.78e-17
110.530  5.70e-17
110.550  5.73e-17
110.570  5.74e-17
110.590  5.75e-17
110.610  5.70e-17
110.630  5.81e-17
110.650  5.85e-17
110.670  5.71e-17
110.690  5.78e-17
110.710  5.62e-17
110.730  5.73e-17
110.750  5.72e-17
110.770  5.73e-17
110.790  5.70e-17
110.810  5.79e-17
110.830  5.70e-17
110.850  5.81e-17
110.870  5.72e-17
110.890  5.71e-17
110.910  5.75e-17
110.930  5.84e-17
110.950  5.71e-17
110.970  5.76e-17
110.990  5.74e-17
111.010  5.80e-17
111.030  5.74e-17
111.050  5.80e-17
111.070  5.63e-17
111.090  5.65e-17
111.110  5.68e-17
111.130  5.56e-17
111.150  5.75e-17
111.170  5.79e-17
111.190  5.77e-17
111.210  5.70e-17
111.230  5.76e-17
111.250  5.81e-17
111.270  5.70e-17
111.290  5.65e-17
111.310  5.62e-17
111.330  5.71e-17
111.350  5.64e-17
111.370  5.75e-17
111.390  5.78e-17
111.410  5.86e-17
111.430  5.74e-17
111.450  5.75e-17
111.470  5.72e-17
111.490  5.84e-17
111.510  5.76e-17
111.530  5.64e-17
111.550  5.81e-17
111.570  5.66e-17
111.590  5.67e-17
111.610  5.64e-17
111.630  5.68e-17
111.650  5.79e-17
111.670  5.63e-17
111.690  5.67e-17
111.710  5.69e-17
111.730  5.71e-17
111.750  5.68e-17
111.770  5.63e-17
111.790  5.75e-17
111.810  5.67e-17
111.830  5.86e-17
111.850  5.72e-17
111.870  5.70e-17
111.890  5.68e-17
111.910  5.74e-17
111.930  5.77e-17
111.950  5.77e-17
111.970  5.74e-17
111.990  5.73e-17
112.010  5.78e-17
112.030  5.81e-17
112.050  5.75e-17
112.070  5.76e-17
112.090  5.70e-17
112.110  5.81e-17
112.130  5.71e-17
112.150  5.81e-17
112.170  5.94e-17
112.190  5.78e-17
112.210  5.69e-17
112.230  5.82e-17
112.250  5.86e-17
112.270  5.77e-17
112.280  5.80e-17
112.300  5.80e-17
112.320  5.75e-17
112.340  5.67e-17
112.360  5.62e-17
112.380  5.70e-17
112.400  5.72e-17
112.420  5.71e-17
112.440  5.72e-17
112.460  5.73e-17
112.480  5.75e-17
112.500  5.70e-17
112.520  5.75e-17
112.540  5.64e-17
112.560  5.71e-17
112.580  5.68e-17
112.600  5.77e-17
112.620  5.73e-17
112.640  5.66e-17
112.660  5.60e-17
112.680  5.65e-17
112.700  5.76e-17
112.720  5.64e-17
112.740  5.75e-17
112.760  5.87e-17
112.780  5.76e-17
112.800  5.69e-17
112.820  5.69e-17
112.840  5.67e-17
112.860  5.78e-17
112.880  5.67e-17
112.900  5.68e-17
112.920  5.75e-17
112.940  5.74e-17
112.960  5.75e-17
112.980  5.79e-17
113.000  5.84e-17
113.020  5.63e-17
113.040  5.68e-17
113.060  5.71e-17
113.080  5.72e-17
113.100  5.66e-17
113.120  5.70e-17
113.140  5.74e-17
113.160  5.62e-17
113.180  5.74e-17
113.200  5.75e-17
113.220  5.73e-17
113.240  5.69e-17
113.260  5.78e-17
113.280  5.67e-17
113.300  5.78e-17
113.320  5.76e-17
113.340  5.65e-17
113.360  5.71e-17
113.380  5.72e-17
113.400  5.69e-17
113.420  5.59e-17
113.440  5.74e-17
113.460  5.58e-17
113.480  5.73e-17
113.500  5.62e-17
113.520  5.66e-17
113.540  5.70e-17
113.560  5.65e-17
113.580  5.71e-17
113.600  5.72e-17
113.620  5.70e-17
113.640  5.71e-17
113.660  5.65e-17
113.680  5.69e-17
113.700  5.71e-17
113.720  5.67e-17
113.740  5.72e-17
113.760  5.61e-17
113.780  5.67e-17
113.800  5.66e-17
113.820  5.68e-17
113.840  5.62e-17
113.860  5.60e-17
113.880  5.65e-17
113.900  5.67e-17
113.920  5.71e-17
113.940  5.66e-17
113.960  5.66e-17
113.980  5.59e-17
114.000  5.65e-17
114.020  5.63e-17
114.040  5.65e-17
114.060  5.62e-17
114.080  5.70e-17
114.100  5.63e-17
114.120  5.60e-17
114.140  5.62e-17
114.160  5.69e-17
114.180  5.61e-17
114.200  5.69e-17
114.220  5.58e-17
114.240  5.59e-17
114.260  5.65e-17
114.280  5.68e-17
114.300  5.64e-17
114.320  5.56e-17
114.340  5.68e-17
114.360  5.61e-17
114.380  5.55e-17
114.400  5.63e-17
114.420  5.62e-17
114.440  5.60e-17
114.460  5.60e-17
114.480  5.60e-17
114.500  5.61e-17
114.520  5.63e-17
114.540  5.59e-17
114.560  5.61e-17
114.580  5.62e-17
114.600  5.69e-17
114.620  5.54e-17
114.640  5.60e-17
114.660  5.63e-17
114.680  5.65e-17
114.700  5.64e-17
114.720  5.61e-17
114.740  5.70e-17
114.760  5.67e-17
114.780  5.60e-17
114.800  5.64e-17
114.820  5.70e-17
114.840  5.64e-17
114.860  5.67e-17
114.880  5.65e-17
114.900  5.62e-17
114.920  5.55e-17
114.940  5.61e-17
114.960  5.66e-17
114.980  5.57e-17
115.000  5.53e-17
115.020  5.62e-17
115.040  5.58e-17
115.060  5.69e-17
115.080  5.56e-17
115.100  5.59e-17
115.120  5.51e-17
115.140  5.55e-17
115.160  5.64e-17
115.180  5.69e-17
115.200  5.60e-17
115.220  5.59e-17
115.240  5.59e-17
115.260  5.59e-17
115.280  5.61e-17
115.300  5.60e-17
115.320  5.60e-17
115.340  5.57e-17
115.360  5.61e-17
115.380  5.64e-17
115.400  5.59e-17
115.420  5.65e-17
115.440  5.60e-17
115.460  5.65e-17
115.480  5.65e-17
115.500  5.56e-17
115.520  5.52e-17
115.540  5.58e-17
115.560  5.63e-17
115.580  5.62e-17
115.600  5.61e-17
115.620  5.56e-17
115.640  5.71e-17
115.660  5.59e-17
115.680  5.54e-17
115.700  5.62e-17
115.720  5.62e-17
115.740  5.64e-17
115.760  5.59e-17
115.780  5.64e-17
115.800  5.54e-17
115.820  5.59e-17
115.840  5.57e-17
115.860  5.57e-17
115.880  5.52e-17
115.900  5.62e-17
115.920  5.64e-17
115.940  5.62e-17
115.960  5.57e-17
115.980  5.56e-17
116.000  5.61e-17
116.020  5.52e-17
116.040  5.59e-17
116.060  5.54e-17
116.080  5.58e-17
116.100  5.53e-17
116.120  5.61e-17
116.140  5.61e-17
116.160  5.55e-17
116.180  5.64e-17
116.200  5.60e-17
116.220  5.56e-17
116.240  5.58e-17
116.260  5.66e-17
116.280  5.54e-17
116.300  5.56e-17
116.320  5.62e-17
116.340  5.61e-17
116.360  5.59e-17
116.380  5.55e-17
116.400  5.51e-17
116.420  5.54e-17
116.440  5.55e-17
116.460  5.55e-17
116.480  5.64e-17
116.500  5.53e-17
116.520  5.54e-17
116.540  5.55e-17
116.560  5.56e-17
116.580  5.63e-17
116.600  5.53e-17
116.620  5.50e-17
116.640  5.62e-17
116.660  5.50e-17
116.680  5.52e-17
116.700  5.57e-17
116.720  5.47e-17
116.740  5.55e-17
116.760  5.48e-17
116.780  5.51e-17
116.800  5.55e-17
116.820  5.58e-17
116.840  5.52e-17
116.860  5.69e-17
116.880  5.55e-17
116.900  5.51e-17
116.920  5.55e-17
116.940  5.59e-17
116.960  5.51e-17
116.980  5.51e-17
117.000  5.58e-17
117.020  5.54e-17
117.040  5.49e-17
117.060  5.57e-17
117.080  5.55e-17
117.100  5.50e-17
117.120  5.57e-17
117.140  5.49e-17
117.160  5.57e-17
117.180  5.56e-17
117.200  5.51e-17
117.220  5.52e-17
117.240  5.50e-17
117.260  5.58e-17
117.280  5.47e-17
117.300  5.53e-17
117.320  5.55e-17
117.340  5.54e-17
117.360  5.51e-17
117.380  5.50e-17
117.400  5.50e-17
117.420  5.52e-17
117.440  5.43e-17
117.460  5.43e-17
117.480  5.52e-17
117.500  5.45e-17
117.520  5.49e-17
117.540  5.55e-17
117.560  5.51e-17
117.580  5.54e-17
117.600  5.44e-17
117.620  5.41e-17
117.640  5.47e-17
117.660  5.47e-17
117.680  5.45e-17
117.700  5.45e-17
117.720  5.44e-17
117.740  5.40e-17
117.760  5.46e-17
117.780  5.50e-17
117.800  5.37e-17
117.820  5.36e-17
117.840  5.39e-17
117.860  5.37e-17
117.880  5.36e-17
117.900  5.39e-17
117.920  5.35e-17
117.940  5.40e-17
117.960  5.36e-17
117.980  5.42e-17
118.000  5.41e-17
118.020  5.45e-17
118.040  5.38e-17
118.060  5.36e-17
118.080  5.25e-17
118.100  5.38e-17
118.120  5.41e-17
118.140  5.32e-17
118.160  5.29e-17
118.180  5.35e-17
118.200  5.33e-17
118.220  5.31e-17
118.240  5.36e-17
118.260  5.29e-17
118.280  5.32e-17
118.300  5.30e-17
118.320  5.26e-17
118.340  5.26e-17
118.360  5.35e-17
118.380  5.32e-17
118.400  5.33e-17
118.420  5.26e-17
118.440  5.31e-17
118.460  5.29e-17
118.480  5.31e-17
118.500  5.29e-17
118.520  5.27e-17
118.540  5.22e-17
118.560  5.22e-17
118.580  5.27e-17
118.600  5.26e-17
118.620  5.31e-17
118.640  5.17e-17
118.660  5.29e-17
118.680  5.21e-17
118.700  5.26e-17
118.720  5.17e-17
118.740  5.24e-17
118.760  5.21e-17
118.780  5.29e-17
118.800  5.26e-17
118.820  5.25e-17
118.840  5.25e-17
118.860  5.18e-17
118.880  5.15e-17
118.900  5.17e-17
118.920  5.15e-17
118.940  5.27e-17
118.960  5.13e-17
118.980  5.16e-17
119.000  5.17e-17
119.020  5.15e-17
119.040  5.16e-17
119.060  5.14e-17
119.080  5.15e-17
119.100  5.15e-17
119.120  5.14e-17
119.140  5.14e-17
119.160  5.17e-17
119.180  5.09e-17
119.200  5.24e-17
119.220  5.09e-17
119.240  5.19e-17
119.260  5.17e-17
119.280  5.13e-17
119.300  5.14e-17
119.320  5.16e-17
119.340  5.21e-17
119.360  5.16e-17
119.380  5.15e-17
119.400  5.12e-17
119.420  5.12e-17
119.440  5.13e-17
119.460  5.10e-17
119.480  5.10e-17
119.490  5.11e-17
119.510  5.13e-17
119.530  5.09e-17
119.550  5.15e-17
119.570  5.06e-17
119.590  5.12e-17
119.610  5.10e-17
119.630  5.12e-17
119.650  5.10e-17
119.670  5.12e-17
119.690  5.11e-17
119.710  5.09e-17
119.730  5.08e-17
119.750  5.05e-17
119.770  5.05e-17
119.790  5.14e-17
119.810  5.04e-17
119.830  5.03e-17
119.850  5.07e-17
119.870  5.09e-17
119.890  5.01e-17
119.910  5.12e-17
119.930  5.05e-17
119.950  5.03e-17
119.970  5.01e-17
119.990  5.02e-17
120.010  5.04e-17
120.030  5.09e-17
120.050  5.01e-17
120.070  5.06e-17
120.090  5.06e-17
120.110  5.05e-17
120.130  4.95e-17
120.150  4.95e-17
120.170  5.03e-17
120.190  5.00e-17
120.210  5.08e-17
120.230  4.99e-17
120.250  4.98e-17
120.270  4.99e-17
120.290  4.96e-17
120.310  5.01e-17
120.330  4.95e-17
120.350  5.01e-17
120.370  4.98e-17
120.390  4.98e-17
120.410  5.00e-17
120.430  4.93e-17
120.450  4.97e-17
120.470  4.92e-17
120.490  4.96e-17
120.510  4.90e-17
120.530  4.92e-17
120.550  4.99e-17
120.570  4.96e-17
120.590  4.88e-17
120.610  4.92e-17
120.630  4.92e-17
120.650  4.86e-17
120.670  4.91e-17
120.690  4.93e-17
120.710  4.96e-17
120.730  4.94e-17
120.750  4.97e-17
120.770  4.89e-17
120.790  4.89e-17
120.810  4.91e-17
120.830  4.86e-17
120.850  4.88e-17
120.870  4.93e-17
120.890  4.89e-17
120.910  4.92e-17
120.930  4.84e-17
120.950  4.85e-17
120.970  4.87e-17
120.990  4.84e-17
121.010  4.83e-17
121.030  4.90e-17
121.050  4.87e-17
121.070  4.82e-17
121.090  4.90e-17
121.110  4.83e-17
121.130  4.85e-17
121.150  4.83e-17
121.170  4.85e-17
121.190  4.82e-17
121.210  4.84e-17
121.230  4.78e-17
121.250  4.86e-17
121.270  4.85e-17
121.290  4.78e-17
121.310  4.84e-17
121.330  4.79e-17
121.350  4.82e-17
121.370  4.80e-17
121.390  4.81e-17
121.410  4.81e-17
121.430  4.81e-17
121.450  4.81e-17
121.470  4.81e-17
121.490  4.81e-17
121.510  4.79e-17
121.530  4.81e-17
121.550  4.78e-17
121.570  4.82e-17
121.590  4.79e-17
121.610  4.85e-17
121.630  4.83e-17
121.650  4.77e-17
121.670  4.78e-17
121.690  4.82e-17
121.710  4.81e-17
121.730  4.75e-17
121.750  4.75e-17
121.770  4.75e-17
121.790  4.75e-17
121.810  4.72e-17
121.830  4.76e-17
121.850  4.82e-17
121.870  4.82e-17
121.890  4.74e-17
121.910  4.76e-17
121.930  4.75e-17
121.950  4.74e-17
121.970  4.80e-17
121.990  4.74e-17
122.010  4.75e-17
122.030  4.79e-17
122.050  4.81e-17
122.070  4.74e-17
122.090  4.73e-17
122.110  4.74e-17
122.130  4.74e-17
122.150  4.77e-17
122.170  4.75e-17
122.190  4.73e-17
122.210  4.79e-17
122.230  4.79e-17
122.250  4.76e-17
122.270  4.69e-17
122.290  4.70e-17
122.310  4.72e-17
122.330  4.74e-17
122.350  4.72e-17
122.370  4.70e-17
122.390  4.72e-17
122.410  4.74e-17
122.430  4.75e-17
122.450  4.72e-17
122.470  4.71e-17
122.490  4.68e-17
122.510  4.70e-17
122.530  4.68e-17
122.550  4.68e-17
122.570  4.67e-17
122.590  4.71e-17
122.610  4.69e-17
122.630  4.70e-17
122.650  4.66e-17
122.670  4.66e-17
122.690  4.68e-17
122.710  4.64e-17
122.730  4.67e-17
122.750  4.63e-17
122.770  4.61e-17
122.790  4.64e-17
122.810  4.62e-17
122.830  4.59e-17
122.850  4.62e-17
122.870  4.63e-17
122.890  4.60e-17
122.910  4.61e-17
122.930  4.64e-17
122.950  4.61e-17
122.970  4.57e-17
122.990  4.59e-17
123.010  4.60e-17
123.030  4.59e-17
123.050  4.54e-17
123.070  4.60e-17
123.090  4.61e-17
123.110  4.60e-17
123.130  4.56e-17
123.150  4.60e-17
123.170  4.56e-17
123.190  4.60e-17
123.210  4.58e-17
123.230  4.53e-17
123.250  4.52e-17
123.270  4.53e-17
123.290  4.57e-17
123.310  4.51e-17
123.330  4.58e-17
123.350  4.54e-17
123.370  4.53e-17
123.390  4.53e-17
123.410  4.49e-17
123.430  4.50e-17
123.450  4.51e-17
123.470  4.52e-17
123.490  4.51e-17
123.510  4.53e-17
123.530  4.50e-17
123.550  4.50e-17
123.570  4.48e-17
123.590  4.52e-17
123.610  4.50e-17
123.630  4.48e-17
123.650  4.45e-17
123.670  4.49e-17
123.690  4.43e-17
123.710  4.40e-17
123.730  4.44e-17
123.750  4.44e-17
123.770  4.44e-17
123.790  4.43e-17
123.810  4.43e-17
123.830  4.42e-17
123.850  4.39e-17
123.870  4.48e-17
123.890  4.41e-17
123.910  4.43e-17
123.930  4.44e-17
123.950  4.35e-17
123.970  4.40e-17
123.990  4.39e-17
124.010  4.43e-17
124.030  4.40e-17
124.050  4.40e-17
124.070  4.39e-17
124.090  4.37e-17
124.110  4.38e-17
124.130  4.32e-17
124.150  4.39e-17
124.170  4.35e-17
124.190  4.41e-17
124.210  4.37e-17
124.230  4.35e-17
124.250  4.37e-17
124.270  4.33e-17
124.290  4.29e-17
124.310  4.36e-17
124.330  4.32e-17
124.350  4.35e-17
124.370  4.35e-17
124.390  4.31e-17
124.410  4.34e-17
124.430  4.35e-17
124.450  4.26e-17
124.470  4.29e-17
124.490  4.31e-17
124.510  4.28e-17
124.530  4.28e-17
124.550  4.26e-17
124.570  4.27e-17
124.590  4.27e-17
124.610  4.23e-17
124.630  4.23e-17
124.650  4.23e-17
124.670  4.22e-17
124.690  4.22e-17
124.710  4.15e-17
124.730  4.20e-17
124.750  4.18e-17
124.770  4.13e-17
124.790  4.13e-17
124.810  4.19e-17
124.830  4.18e-17
124.850  4.13e-17
124.870  4.12e-17
124.890  4.13e-17
124.910  4.13e-17
124.930  4.08e-17
124.950  4.13e-17
124.970  4.09e-17
124.990  4.10e-17
125.010  4.11e-17
125.030  4.09e-17
125.050  4.09e-17
125.070  4.07e-17
125.090  4.09e-17
125.110  4.09e-17
125.130  4.05e-17
125.150  4.02e-17
125.170  4.06e-17
125.190  4.05e-17
125.210  4.04e-17
125.230  4.06e-17
125.250  4.01e-17
125.270  4.05e-17
125.290  4.05e-17
125.310  3.98e-17
125.330  4.03e-17
125.350  4.00e-17
125.370  3.96e-17
125.390  3.94e-17
125.410  3.97e-17
125.430  3.91e-17
125.450  3.90e-17
125.470  3.92e-17
125.490  3.91e-17
125.510  3.91e-17
125.530  3.94e-17
125.550  3.91e-17
125.570  3.87e-17
125.590  3.87e-17
125.610  3.87e-17
125.630  3.87e-17
125.650  3.88e-17
125.670  3.84e-17
125.690  3.82e-17
125.710  3.81e-17
125.730  3.79e-17
125.750  3.80e-17
125.770  3.77e-17
125.790  3.77e-17
125.810  3.79e-17
125.830  3.77e-17
125.850  3.80e-17
125.870  3.74e-17
125.890  3.75e-17
125.910  3.74e-17
125.930  3.76e-17
125.950  3.73e-17
125.970  3.69e-17
125.990  3.73e-17
126.010  3.72e-17
126.030  3.69e-17
126.050  3.67e-17
126.070  3.68e-17
126.090  3.68e-17
126.110  3.68e-17
126.130  3.68e-17
126.150  3.67e-17
126.170  3.65e-17
126.190  3.61e-17
126.210  3.62e-17
126.230  3.61e-17
126.250  3.60e-17
126.270  3.60e-17
126.290  3.63e-17
126.310  3.59e-17
126.330  3.61e-17
126.350  3.56e-17
126.370  3.54e-17
126.390  3.54e-17
126.410  3.53e-17
126.430  3.50e-17
126.450  3.52e-17
126.470  3.49e-17
126.490  3.49e-17
126.510  3.46e-17
126.530  3.51e-17
126.550  3.41e-17
126.570  3.45e-17
126.590  3.44e-17
126.610  3.42e-17
126.630  3.43e-17
126.650  3.41e-17
126.670  3.40e-17
126.690  3.42e-17
126.710  3.39e-17
126.730  3.38e-17
126.750  3.40e-17
126.770  3.37e-17
126.790  3.36e-17
126.810  3.35e-17
126.830  3.30e-17
126.850  3.30e-17
126.870  3.28e-17
126.890  3.30e-17
126.910  3.30e-17
126.930  3.30e-17
126.950  3.22e-17
126.970  3.28e-17
126.990  3.24e-17
127.010  3.24e-17
127.030  3.24e-17
127.050  3.23e-17
127.070  3.24e-17
127.090  3.22e-17
127.110  3.16e-17
127.130  3.18e-17
127.150  3.16e-17
127.170  3.13e-17
127.190  3.13e-17
127.210  3.09e-17
127.230  3.12e-17
127.250  3.11e-17
127.270  3.07e-17
127.290  3.05e-17
127.310  3.04e-17
127.330  2.99e-17
127.350  3.01e-17
127.370  3.01e-17
127.390  3.04e-17
127.410  3.03e-17
127.430  3.00e-17
127.450  2.96e-17
127.470  2.97e-17
127.490  2.96e-17
127.510  2.96e-17
127.530  2.94e-17
127.550  2.95e-17
127.570  2.91e-17
127.590  2.91e-17
127.610  2.91e-17
127.630  2.91e-17
127.650  2.88e-17
127.670  2.88e-17
127.690  2.85e-17
127.710  2.88e-17
127.730  2.83e-17
127.750  2.81e-17
127.770  2.82e-17
127.790  2.81e-17
127.810  2.81e-17
127.830  2.76e-17
127.850  2.79e-17
127.870  2.78e-17
127.890  2.82e-17
127.910  2.79e-17
127.930  2.73e-17
127.950  2.76e-17
127.970  2.74e-17
127.990  2.73e-17
128.010  2.67e-17
128.030  2.70e-17
128.050  2.67e-17
128.070  2.66e-17
128.090  2.65e-17
128.110  2.61e-17
128.130  2.66e-17
128.150  2.64e-17
128.170  2.60e-17
128.190  2.62e-17
128.210  2.61e-17
128.230  2.60e-17
128.250  2.61e-17
128.270  2.61e-17
128.290  2.59e-17
128.310  2.61e-17
128.330  2.56e-17
128.350  2.54e-17
128.370  2.51e-17
128.390  2.54e-17
128.410  2.54e-17
128.430  2.53e-17
128.450  2.46e-17
128.470  2.49e-17
128.490  2.50e-17
128.510  2.46e-17
128.530  2.44e-17
128.550  2.46e-17
128.570  2.47e-17
128.590  2.48e-17
128.610  2.50e-17
128.630  2.50e-17
128.650  2.48e-17
128.670  2.45e-17
128.690  2.44e-17
128.710  2.39e-17
128.730  2.40e-17
128.740  2.35e-17
128.760  2.37e-17
128.780  2.37e-17
128.800  2.36e-17
128.820  2.34e-17
128.840  2.37e-17
128.860  2.37e-17
128.880  2.32e-17
128.900  2.33e-17
128.920  2.35e-17
128.940  2.33e-17
128.960  2.36e-17
128.980  2.36e-17
129.000  2.34e-17
129.020  2.31e-17
129.040  2.25e-17
129.060  2.20e-17
129.080  2.22e-17
129.100  2.21e-17
129.120  2.18e-17
129.140  2.18e-17
129.160  2.18e-17
129.180  2.19e-17
129.200  2.19e-17
129.220  2.20e-17
129.240  2.21e-17
129.260  2.19e-17
129.280  2.15e-17
129.300  2.14e-17
129.320  2.15e-17
129.340  2.20e-17
129.360  2.16e-17
129.380  2.18e-17
129.400  2.14e-17
129.420  2.14e-17
129.440  2.15e-17
129.460  2.08e-17
129.480  2.07e-17
129.500  2.00e-17
129.520  1.99e-17
129.540  1.99e-17
129.560  2.01e-17
129.580  1.99e-17
129.600  2.00e-17
129.620  2.01e-17
129.640  2.03e-17
129.660  2.03e-17
129.680  2.02e-17
129.700  2.05e-17
129.720  2.01e-17
129.740  2.04e-17
129.760  2.06e-17
129.780  2.08e-17
129.800  2.03e-17
129.820  1.99e-17
129.840  1.93e-17
129.860  1.91e-17
129.880  1.94e-17
129.900  1.94e-17
129.920  1.95e-17
129.940  1.93e-17
129.960  1.94e-17
129.980  1.95e-17
130.000  1.96e-17
130.020  1.98e-17
130.040  1.99e-17
130.060  1.98e-17
130.080  1.97e-17
130.100  1.92e-17
130.120  1.89e-17
130.140  1.87e-17
130.160  1.84e-17
130.180  1.82e-17
130.200  1.83e-17
130.220  1.83e-17
130.240  1.82e-17
130.260  1.78e-17
130.280  1.77e-17
130.300  1.75e-17
130.320  1.75e-17
130.340  1.74e-17
130.360  1.74e-17
130.380  1.74e-17
130.400  1.75e-17
130.420  1.77e-17
130.440  1.78e-17
130.460  1.77e-17
130.480  1.75e-17
130.500  1.73e-17
130.520  1.72e-17
130.540  1.74e-17
130.560  1.75e-17
130.580  1.78e-17
130.600  1.79e-17
130.620  1.73e-17
130.640  1.69e-17
130.660  1.65e-17
130.680  1.64e-17
130.700  1.63e-17
130.720  1.65e-17
130.740  1.65e-17
130.760  1.68e-17
130.780  1.69e-17
130.800  1.73e-17
130.820  1.72e-17
130.840  1.70e-17
130.860  1.68e-17
130.880  1.69e-17
130.900  1.68e-17
130.920  1.68e-17
130.940  1.70e-17
130.960  1.70e-17
130.980  1.73e-17
131.000  1.75e-17
131.020  1.70e-17
131.040  1.65e-17
131.060  1.60e-17
131.080  1.57e-17
131.100  1.56e-17
131.120  1.54e-17
131.140  1.54e-17
131.160  1.53e-17
131.180  1.53e-17
131.200  1.52e-17
131.220  1.52e-17
131.240  1.52e-17
131.260  1.50e-17
131.280  1.50e-17
131.300  1.49e-17
131.320  1.48e-17
131.340  1.48e-17
131.360  1.49e-17
131.380  1.50e-17
131.400  1.51e-17
131.420  1.52e-17
131.440  1.53e-17
131.460  1.54e-17
131.480  1.55e-17
131.500  1.56e-17
131.520  1.55e-17
131.540  1.55e-17
131.560  1.57e-17
131.580  1.61e-17
131.600  1.62e-17
131.620  1.63e-17
131.640  1.61e-17
131.660  1.59e-17
131.680  1.56e-17
131.700  1.54e-17
131.720  1.53e-17
131.740  1.54e-17
131.760  1.56e-17
131.780  1.58e-17
131.800  1.59e-17
131.820  1.61e-17
131.840  1.62e-17
131.860  1.60e-17
131.880  1.56e-17
131.900  1.52e-17
131.920  1.49e-17
131.940  1.50e-17
131.960  1.51e-17
131.980  1.52e-17
132.000  1.52e-17
132.020  1.50e-17
132.040  1.49e-17
132.060  1.49e-17
132.080  1.48e-17
132.100  1.51e-17
132.120  1.52e-17
132.140  1.55e-17
132.160  1.58e-17
132.180  1.59e-17
132.200  1.57e-17
132.220  1.54e-17
132.240  1.52e-17
132.260  1.49e-17
132.280  1.48e-17
132.300  1.49e-17
132.320  1.49e-17
132.340  1.49e-17
132.360  1.51e-17
132.380  1.52e-17
132.400  1.54e-17
132.420  1.54e-17
132.440  1.58e-17
132.460  1.60e-17
132.480  1.60e-17
132.500  1.56e-17
132.520  1.52e-17
132.540  1.48e-17
132.560  1.48e-17
132.580  1.46e-17
132.600  1.45e-17
132.620  1.45e-17
132.640  1.44e-17
132.660  1.43e-17
132.680  1.44e-17
132.700  1.42e-17
132.720  1.41e-17
132.740  1.40e-17
132.760  1.38e-17
132.780  1.37e-17
132.800  1.36e-17
132.820  1.37e-17
132.840  1.36e-17
132.860  1.35e-17
132.880  1.35e-17
132.900  1.33e-17
132.920  1.33e-17
132.940  1.32e-17
132.960  1.32e-17
132.980  1.31e-17
133.000  1.30e-17
133.020  1.30e-17
133.040  1.31e-17
133.060  1.33e-17
133.080  1.34e-17
133.100  1.35e-17
133.120  1.35e-17
133.140  1.31e-17
133.160  1.29e-17
133.180  1.26e-17
133.200  1.25e-17
133.220  1.26e-17
133.240  1.26e-17
133.260  1.26e-17
133.280  1.25e-17
133.300  1.24e-17
133.320  1.24e-17
133.340  1.25e-17
133.360  1.23e-17
133.380  1.23e-17
133.400  1.24e-17
133.420  1.25e-17
133.440  1.27e-17
133.460  1.30e-17
133.480  1.34e-17
133.500  1.38e-17
133.520  1.41e-17
133.540  1.43e-17
133.560  1.42e-17
133.580  1.39e-17
133.600  1.36e-17
133.620  1.34e-17
133.640  1.33e-17
133.660  1.33e-17
133.680  1.33e-17
133.700  1.33e-17
133.720  1.31e-17
133.740  1.31e-17
133.760  1.30e-17
133.780  1.29e-17
133.800  1.30e-17
133.820  1.32e-17
133.840  1.37e-17
133.860  1.42e-17
133.880  1.49e-17
133.900  1.56e-17
133.920  1.61e-17
133.940  1.56e-17
133.960  1.43e-17
133.980  1.32e-17
134.000  1.27e-17
134.020  1.24e-17
134.040  1.24e-17
134.060  1.24e-17
134.080  1.25e-17
134.100  1.25e-17
134.120  1.26e-17
134.140  1.24e-17
134.160  1.25e-17
134.180  1.24e-17
134.200  1.23e-17
134.220  1.21e-17
134.240  1.21e-17
134.260  1.21e-17
134.280  1.21e-17
134.300  1.22e-17
134.320  1.21e-17
134.340  1.22e-17
134.360  1.22e-17
134.380  1.23e-17
134.400  1.24e-17
134.420  1.27e-17
134.440  1.29e-17
134.460  1.33e-17
134.480  1.36e-17
134.500  1.41e-17
134.520  1.46e-17
134.540  1.47e-17
134.560  1.49e-17
134.580  1.46e-17
134.600  1.41e-17
134.620  1.36e-17
134.640  1.33e-17
134.660  1.30e-17
134.680  1.29e-17
134.700  1.27e-17
134.720  1.26e-17
134.740  1.27e-17
134.760  1.27e-17
134.780  1.27e-17
134.800  1.28e-17
134.820  1.31e-17
134.840  1.31e-17
134.860  1.33e-17
134.880  1.32e-17
134.900  1.33e-17
134.920  1.33e-17
134.940  1.33e-17
134.960  1.30e-17
134.980  1.29e-17
135.000  1.28e-17
135.020  1.25e-17
135.040  1.23e-17
135.060  1.22e-17
135.080  1.20e-17
135.100  1.20e-17
135.120  1.19e-17
135.140  1.19e-17
135.160  1.22e-17
135.180  1.22e-17
135.200  1.23e-17
135.220  1.24e-17
135.240  1.26e-17
135.260  1.27e-17
135.280  1.27e-17
135.300  1.26e-17
135.320  1.26e-17
135.340  1.26e-17
135.360  1.25e-17
135.380  1.24e-17
135.400  1.23e-17
135.420  1.20e-17
135.440  1.17e-17
135.460  1.15e-17
135.480  1.13e-17
135.500  1.11e-17
135.520  1.10e-17
135.540  1.09e-17
135.560  1.09e-17
135.580  1.08e-17
135.600  1.08e-17
135.620  1.08e-17
135.640  1.09e-17
135.660  1.08e-17
135.680  1.09e-17
135.700  1.09e-17
135.720  1.10e-17
135.740  1.10e-17
135.760  1.11e-17
135.780  1.11e-17
135.800  1.11e-17
135.820  1.10e-17
135.840  1.07e-17
135.860  1.04e-17
135.880  1.02e-17
135.900  1.01e-17
135.920  9.99e-18
135.940  9.84e-18
135.960  9.94e-18
135.980  9.95e-18
136.000  9.93e-18
136.020  9.97e-18
136.040  1.00e-17
136.060  1.01e-17
136.080  1.02e-17
136.100  1.03e-17
136.120  1.03e-17
136.140  1.03e-17
136.160  1.03e-17
136.180  1.03e-17
136.200  1.01e-17
136.220  1.02e-17
136.240  1.01e-17
136.260  1.01e-17
136.280  1.01e-17
136.300  1.03e-17
136.320  1.04e-17
136.340  1.05e-17
136.360  1.06e-17
136.380  1.07e-17
136.400  1.07e-17
136.420  1.07e-17
136.440  1.07e-17
136.460  1.06e-17
136.480  1.08e-17
136.500  1.09e-17
136.520  1.10e-17
136.540  1.11e-17
136.560  1.12e-17
136.580  1.12e-17
136.600  1.12e-17
136.620  1.11e-17
136.640  1.11e-17
136.660  1.11e-17
136.680  1.11e-17
136.700  1.12e-17
136.720  1.13e-17
136.740  1.12e-17
136.760  1.13e-17
136.780  1.14e-17
136.800  1.15e-17
136.820  1.16e-17
136.840  1.18e-17
136.860  1.18e-17
136.880  1.21e-17
136.900  1.23e-17
136.920  1.24e-17
136.940  1.28e-17
136.960  1.29e-17
136.980  1.29e-17
137.000  1.29e-17
137.020  1.27e-17
137.040  1.27e-17
137.060  1.26e-17
137.080  1.26e-17
137.100  1.25e-17
137.120  1.28e-17
137.140  1.29e-17
137.160  1.32e-17
137.180  1.33e-17
137.200  1.35e-17
137.220  1.36e-17
137.240  1.37e-17
137.260  1.35e-17
137.280  1.33e-17
137.300  1.30e-17
137.320  1.29e-17
137.340  1.27e-17
137.360  1.27e-17
137.380  1.26e-17
137.400  1.27e-17
137.420  1.27e-17
137.440  1.26e-17
137.460  1.26e-17
137.480  1.24e-17
137.500  1.21e-17
137.520  1.20e-17
137.540  1.20e-17
137.560  1.20e-17
137.580  1.18e-17
137.600  1.19e-17
137.620  1.18e-17
137.640  1.19e-17
137.660  1.19e-17
137.680  1.20e-17
137.700  1.23e-17
137.720  1.27e-17
137.740  1.31e-17
137.760  1.37e-17
137.780  1.43e-17
137.800  1.51e-17
137.820  1.55e-17
137.840  1.57e-17
137.860  1.54e-17
137.880  1.46e-17
137.900  1.37e-17
137.920  1.30e-17
137.940  1.23e-17
137.960  1.18e-17
137.980  1.16e-17
138.000  1.13e-17
138.020  1.12e-17
138.040  1.11e-17
138.060  1.11e-17
138.080  1.09e-17
138.100  1.09e-17
138.120  1.09e-17
138.140  1.08e-17
138.160  1.08e-17
138.180  1.07e-17
138.200  1.08e-17
138.220  1.08e-17
138.240  1.08e-17
138.260  1.08e-17
138.280  1.07e-17
138.300  1.07e-17
138.320  1.06e-17
138.340  1.07e-17
138.360  1.07e-17
138.380  1.08e-17
138.400  1.06e-17
138.420  1.06e-17
138.440  1.06e-17
138.460  1.04e-17
138.480  1.03e-17
138.500  1.01e-17
138.520  9.99e-18
138.540  9.93e-18
138.560  9.97e-18
138.580  9.85e-18
138.600  9.95e-18
138.620  1.00e-17
138.640  1.00e-17
138.660  9.96e-18
138.680  1.01e-17
138.700  1.02e-17
138.720  1.02e-17
138.740  1.03e-17
138.760  1.03e-17
138.780  1.04e-17
138.800  1.05e-17
138.820  1.05e-17
138.840  1.07e-17
138.860  1.07e-17
138.880  1.07e-17
138.900  1.07e-17
138.920  1.07e-17
138.940  1.08e-17
138.960  1.07e-17
138.980  1.09e-17
139.000  1.08e-17
139.020  1.09e-17
139.040  1.10e-17
139.060  1.11e-17
139.080  1.12e-17
139.100  1.13e-17
139.120  1.16e-17
139.140  1.19e-17
139.160  1.22e-17
139.180  1.27e-17
139.200  1.32e-17
139.220  1.37e-17
139.240  1.39e-17
139.260  1.43e-17
139.280  1.43e-17
139.300  1.43e-17
139.320  1.39e-17
139.340  1.34e-17
139.360  1.29e-17
139.380  1.25e-17
139.400  1.22e-17
139.420  1.20e-17
139.440  1.18e-17
139.460  1.16e-17
139.480  1.15e-17
139.500  1.14e-17
139.520  1.13e-17
139.540  1.12e-17
139.560  1.12e-17
139.580  1.12e-17
139.600  1.12e-17
139.620  1.13e-17
139.640  1.13e-17
139.660  1.14e-17
139.680  1.15e-17
139.700  1.15e-17
139.720  1.15e-17
139.740  1.16e-17
139.760  1.16e-17
139.780  1.18e-17
139.800  1.19e-17
139.820  1.20e-17
139.840  1.20e-17
139.860  1.21e-17
139.880  1.22e-17
139.900  1.21e-17
139.920  1.20e-17
139.940  1.19e-17
139.960  1.19e-17
139.980  1.17e-17
140.000  1.17e-17
140.020  1.16e-17
140.040  1.16e-17
140.060  1.16e-17
140.080  1.16e-17
140.100  1.16e-17
140.120  1.16e-17
140.140  1.16e-17
140.160  1.16e-17
140.180  1.15e-17
140.200  1.15e-17
140.220  1.15e-17
140.240  1.15e-17
140.260  1.14e-17
140.280  1.13e-17
140.300  1.13e-17
140.320  1.13e-17
140.340  1.13e-17
140.360  1.14e-17
140.380  1.13e-17
140.400  1.14e-17
140.420  1.15e-17
140.440  1.15e-17
140.460  1.16e-17
140.480  1.16e-17
140.500  1.16e-17
140.520  1.17e-17
140.540  1.16e-17
140.560  1.17e-17
140.580  1.16e-17
140.600  1.16e-17
140.620  1.16e-17
140.640  1.16e-17
140.660  1.16e-17
140.680  1.17e-17
140.700  1.17e-17
140.720  1.16e-17
140.740  1.16e-17
140.760  1.16e-17
140.780  1.16e-17
140.800  1.16e-17
140.820  1.15e-17
140.840  1.15e-17
140.860  1.15e-17
140.880  1.14e-17
140.900  1.14e-17
140.920  1.13e-17
140.940  1.13e-17
140.960  1.13e-17
140.980  1.13e-17
141.000  1.13e-17
141.020  1.13e-17
141.040  1.13e-17
141.060  1.13e-17
141.080  1.13e-17
141.100  1.13e-17
141.120  1.13e-17
141.140  1.14e-17
141.160  1.13e-17
141.180  1.14e-17
141.200  1.14e-17
141.220  1.15e-17
141.240  1.15e-17
141.260  1.15e-17
141.280  1.15e-17
141.300  1.15e-17
141.320  1.16e-17
141.340  1.15e-17
141.360  1.16e-17
141.380  1.16e-17
141.400  1.17e-17
141.420  1.17e-17
141.440  1.18e-17
141.460  1.18e-17
141.480  1.19e-17
141.500  1.19e-17
141.520  1.19e-17
141.540  1.20e-17
141.560  1.20e-17
141.580  1.21e-17
141.600  1.22e-17
141.620  1.22e-17
141.640  1.22e-17
141.660  1.23e-17
141.680  1.23e-17
141.700  1.23e-17
141.720  1.23e-17
141.740  1.24e-17
141.760  1.24e-17
141.780  1.24e-17
141.800  1.25e-17
141.820  1.24e-17
141.840  1.25e-17
141.860  1.25e-17
141.880  1.25e-17
141.900  1.25e-17
141.920  1.25e-17
141.940  1.26e-17
141.960  1.26e-17
141.980  1.26e-17
142.000  1.27e-17
142.020  1.29e-17
142.040  1.29e-17
142.060  1.29e-17
142.080  1.30e-17
142.100  1.30e-17
142.120  1.30e-17
142.140  1.32e-17
142.160  1.31e-17
142.180  1.32e-17
142.200  1.32e-17
142.220  1.32e-17
142.240  1.31e-17
142.260  1.31e-17
142.280  1.31e-17
142.300  1.31e-17
142.320  1.32e-17
142.340  1.32e-17
142.360  1.32e-17
142.380  1.34e-17
142.400  1.34e-17
142.420  1.34e-17
142.440  1.36e-17
142.460  1.37e-17
142.480  1.38e-17
142.500  1.40e-17
142.520  1.40e-17
142.540  1.41e-17
142.560  1.41e-17
142.580  1.42e-17
142.600  1.41e-17
142.620  1.41e-17
142.640  1.41e-17
142.660  1.41e-17
142.680  1.41e-17
142.700  1.40e-17
142.720  1.39e-17
142.740  1.39e-17
142.760  1.38e-17
142.780  1.38e-17
142.800  1.38e-17
142.820  1.38e-17
142.840  1.38e-17
142.860  1.38e-17
142.880  1.39e-17
142.900  1.40e-17
142.920  1.41e-17
142.940  1.42e-17
142.960  1.43e-17
142.980  1.44e-17
143.000  1.46e-17
143.020  1.47e-17
143.040  1.48e-17
143.060  1.49e-17
143.080  1.50e-17
143.100  1.52e-17
143.120  1.52e-17
143.140  1.51e-17
143.160  1.51e-17
143.180  1.51e-17
143.200  1.51e-17
143.220  1.49e-17
143.240  1.50e-17
143.260  1.49e-17
143.280  1.50e-17
143.300  1.49e-17
143.320  1.50e-17
143.340  1.50e-17
143.360  1.51e-17
143.380  1.51e-17
143.400  1.53e-17
143.420  1.54e-17
143.440  1.55e-17
143.460  1.56e-17
143.480  1.56e-17
143.500  1.58e-17
143.520  1.58e-17
143.540  1.59e-17
143.560  1.59e-17
143.580  1.59e-17
143.600  1.59e-17
143.620  1.59e-17
143.640  1.59e-17
143.660  1.59e-17
143.680  1.59e-17
143.700  1.58e-17
143.720  1.57e-17
143.740  1.57e-17
143.760  1.57e-17
143.780  1.56e-17
143.800  1.58e-17
143.820  1.57e-17
143.840  1.58e-17
143.860  1.58e-17
143.880  1.60e-17
143.900  1.62e-17
143.920  1.63e-17
143.940  1.65e-17
143.960  1.67e-17
143.980  1.66e-17
144.000  1.67e-17
144.020  1.69e-17
144.040  1.69e-17
144.060  1.70e-17
144.080  1.70e-17
144.100  1.70e-17
144.120  1.70e-17
144.140  1.70e-17
144.160  1.69e-17
144.180  1.70e-17
144.200  1.69e-17
144.220  1.69e-17
144.240  1.70e-17
144.260  1.71e-17
144.280  1.73e-17
144.300  1.74e-17
144.320  1.76e-17
144.340  1.78e-17
144.360  1.80e-17
144.380  1.81e-17
144.400  1.80e-17
144.420  1.81e-17
144.440  1.80e-17
144.460  1.79e-17
144.480  1.78e-17
144.500  1.76e-17
144.520  1.74e-17
144.540  1.73e-17
144.560  1.72e-17
144.580  1.71e-17
144.600  1.69e-17
144.620  1.67e-17
144.640  1.65e-17
144.660  1.63e-17
144.680  1.62e-17
144.700  1.61e-17
144.720  1.61e-17
144.740  1.61e-17
144.760  1.61e-17
144.780  1.61e-17
144.800  1.61e-17
144.820  1.62e-17
144.840  1.62e-17
144.860  1.62e-17
144.880  1.63e-17
144.900  1.62e-17
144.920  1.62e-17
144.940  1.61e-17
144.960  1.60e-17
144.980  1.59e-17
145.000  1.58e-17
145.020  1.58e-17
145.040  1.57e-17
145.060  1.56e-17
145.080  1.56e-17
145.100  1.56e-17
145.120  1.56e-17
145.140  1.56e-17
145.160  1.56e-17
145.180  1.58e-17
145.200  1.60e-17
145.220  1.62e-17
145.240  1.65e-17
145.260  1.69e-17
145.280  1.72e-17
145.300  1.75e-17
145.320  1.79e-17
145.340  1.79e-17
145.360  1.80e-17
145.380  1.79e-17
145.400  1.77e-17
145.420  1.72e-17
145.440  1.68e-17
145.460  1.63e-17
145.480  1.59e-17
145.500  1.55e-17
145.520  1.52e-17
145.540  1.49e-17
145.560  1.46e-17
145.580  1.45e-17
145.600  1.43e-17
145.620  1.42e-17
145.640  1.41e-17
145.660  1.40e-17
145.680  1.41e-17
145.700  1.39e-17
145.720  1.40e-17
145.740  1.41e-17
145.760  1.42e-17
145.780  1.42e-17
145.800  1.44e-17
145.820  1.45e-17
145.840  1.45e-17
145.860  1.46e-17
145.880  1.46e-17
145.900  1.47e-17
145.920  1.46e-17
145.940  1.47e-17
145.960  1.46e-17
145.980  1.45e-17
146.000  1.44e-17
146.020  1.43e-17
146.040  1.42e-17
146.060  1.42e-17
146.080  1.42e-17
146.100  1.41e-17
146.120  1.41e-17
146.140  1.42e-17
146.160  1.43e-17
146.180  1.43e-17
146.200  1.45e-17
146.220  1.47e-17
146.240  1.48e-17
146.260  1.51e-17
146.280  1.53e-17
146.300  1.55e-17
146.320  1.56e-17
146.340  1.58e-17
146.360  1.59e-17
146.380  1.61e-17
146.400  1.62e-17
146.420  1.64e-17
146.440  1.65e-17
146.460  1.66e-17
146.480  1.65e-17
146.500  1.65e-17
146.520  1.64e-17
146.540  1.63e-17
146.560  1.62e-17
146.580  1.62e-17
146.600  1.60e-17
146.620  1.60e-17
146.640  1.61e-17
146.660  1.62e-17
146.680  1.63e-17
146.700  1.64e-17
146.720  1.68e-17
146.740  1.71e-17
146.760  1.75e-17
146.780  1.80e-17
146.800  1.85e-17
146.820  1.91e-17
146.840  1.95e-17
146.860  2.00e-17
146.880  2.04e-17
146.900  2.05e-17
146.920  2.04e-17
146.940  2.00e-17
146.960  1.94e-17
146.980  1.87e-17
147.000  1.81e-17
147.020  1.72e-17
147.040  1.66e-17
147.060  1.59e-17
147.080  1.54e-17
147.100  1.49e-17
147.120  1.45e-17
147.140  1.42e-17
147.160  1.39e-17
147.180  1.37e-17
147.200  1.35e-17
147.220  1.33e-17
147.240  1.31e-17
147.260  1.30e-17
147.280  1.29e-17
147.300  1.28e-17
147.320  1.27e-17
147.340  1.26e-17
147.360  1.26e-17
147.380  1.25e-17
147.400  1.24e-17
147.420  1.23e-17
147.440  1.20e-17
147.460  1.19e-17
147.480  1.17e-17
147.500  1.15e-17
147.520  1.14e-17
147.540  1.14e-17
147.560  1.13e-17
147.580  1.12e-17
147.600  1.11e-17
147.620  1.11e-17
147.640  1.09e-17
147.660  1.10e-17
147.680  1.09e-17
147.700  1.09e-17
147.720  1.08e-17
147.740  1.09e-17
147.760  1.09e-17
147.780  1.08e-17
147.800  1.08e-17
147.820  1.08e-17
147.840  1.08e-17
147.860  1.08e-17
147.880  1.07e-17
147.900  1.07e-17
147.920  1.06e-17
147.940  1.06e-17
147.960  1.05e-17
147.980  1.04e-17
148.000  1.05e-17
148.020  1.04e-17
148.040  1.04e-17
148.060  1.03e-17
148.080  1.03e-17
148.100  1.03e-17
148.120  1.03e-17
148.140  1.03e-17
148.160  1.02e-17
148.180  1.02e-17
148.200  1.03e-17
148.220  1.02e-17
148.240  1.02e-17
148.260  1.02e-17
148.280  1.02e-17
148.300  1.01e-17
148.320  1.02e-17
148.340  1.02e-17
148.360  1.02e-17
148.380  1.02e-17
148.400  1.03e-17
148.420  1.03e-17
148.440  1.02e-17
148.460  1.02e-17
148.480  1.03e-17
148.500  1.03e-17
148.520  1.03e-17
148.540  1.03e-17
148.560  1.04e-17
148.580  1.03e-17
148.600  1.05e-17
148.620  1.05e-17
148.640  1.05e-17
148.660  1.06e-17
148.680  1.06e-17
148.700  1.06e-17
148.720  1.06e-17
148.740  1.06e-17
148.760  1.07e-17
148.780  1.06e-17
148.800  1.06e-17
148.820  1.06e-17
148.840  1.06e-17
148.860  1.05e-17
148.880  1.06e-17
148.900  1.04e-17
148.920  1.04e-17
148.940  1.04e-17
148.960  1.04e-17
148.980  1.04e-17
149.000  1.03e-17
149.020  1.04e-17
149.040  1.04e-17
149.060  1.05e-17
149.080  1.05e-17
149.100  1.06e-17
149.120  1.07e-17
149.140  1.08e-17
149.160  1.09e-17
149.180  1.09e-17
149.200  1.10e-17
149.220  1.11e-17
149.240  1.12e-17
149.260  1.12e-17
149.280  1.13e-17
149.300  1.13e-17
149.320  1.13e-17
149.340  1.13e-17
149.360  1.13e-17
149.380  1.12e-17
149.400  1.12e-17
149.420  1.12e-17
149.440  1.12e-17
149.460  1.13e-17
149.480  1.12e-17
149.500  1.13e-17
149.520  1.13e-17
149.540  1.13e-17
149.560  1.14e-17
149.580  1.14e-17
149.600  1.14e-17
149.620  1.14e-17
149.640  1.14e-17
149.660  1.14e-17
149.680  1.14e-17
149.700  1.14e-17
149.720  1.13e-17
149.740  1.13e-17
149.760  1.12e-17
149.780  1.11e-17
149.800  1.11e-17
149.820  1.10e-17
149.840  1.09e-17
149.860  1.09e-17
149.880  1.08e-17
149.900  1.08e-17
149.920  1.08e-17
149.940  1.08e-17
149.960  1.08e-17
149.980  1.08e-17
150.000  1.07e-17
150.020  1.08e-17
150.040  1.08e-17
150.060  1.09e-17
150.080  1.09e-17
150.100  1.09e-17
150.120  1.09e-17
150.140  1.09e-17
150.160  1.08e-17
150.180  1.09e-17
150.200  1.09e-17
150.220  1.09e-17
150.240  1.09e-17
150.260  1.10e-17
150.280  1.10e-17
150.300  1.09e-17
150.320  1.09e-17
150.340  1.10e-17
150.360  1.10e-17
150.380  1.11e-17
150.400  1.12e-17
150.420  1.12e-17
150.440  1.13e-17
150.460  1.13e-17
150.480  1.15e-17
150.500  1.16e-17
150.520  1.17e-17
150.540  1.17e-17
150.560  1.19e-17
150.580  1.21e-17
150.600  1.21e-17
150.620  1.23e-17
150.640  1.23e-17
150.660  1.25e-17
150.680  1.26e-17
150.700  1.26e-17
150.720  1.27e-17
150.740  1.27e-17
150.760  1.27e-17
150.780  1.26e-17
150.800  1.27e-17
150.820  1.27e-17
150.840  1.26e-17
150.860  1.25e-17
150.880  1.25e-17
150.900  1.25e-17
150.920  1.24e-17
150.940  1.24e-17
150.960  1.24e-17
150.980  1.23e-17
151.000  1.24e-17
151.020  1.25e-17
151.040  1.25e-17
151.060  1.25e-17
151.080  1.26e-17
151.100  1.26e-17
151.120  1.28e-17
151.140  1.29e-17
151.160  1.30e-17
151.180  1.31e-17
151.200  1.32e-17
151.220  1.34e-17
151.240  1.35e-17
151.260  1.36e-17
151.280  1.36e-17
151.300  1.36e-17
151.320  1.37e-17
151.340  1.38e-17
151.360  1.37e-17
151.380  1.37e-17
151.400  1.38e-17
151.420  1.39e-17
151.440  1.40e-17
151.460  1.41e-17
151.480  1.43e-17
151.500  1.46e-17
151.520  1.48e-17
151.540  1.51e-17
151.560  1.54e-17
151.580  1.58e-17
151.600  1.61e-17
151.620  1.65e-17
151.640  1.69e-17
151.660  1.73e-17
151.680  1.76e-17
151.700  1.79e-17
151.720  1.82e-17
151.740  1.82e-17
151.760  1.82e-17
151.780  1.82e-17
151.800  1.80e-17
151.820  1.77e-17
151.840  1.73e-17
151.860  1.70e-17
151.880  1.65e-17
151.900  1.62e-17
151.920  1.59e-17
151.940  1.55e-17
151.960  1.52e-17
151.980  1.49e-17
152.000  1.47e-17
152.020  1.45e-17
152.040  1.44e-17
152.060  1.42e-17
152.080  1.41e-17
152.100  1.40e-17
152.120  1.39e-17
152.140  1.38e-17
152.160  1.38e-17
152.180  1.38e-17
152.200  1.37e-17
152.220  1.36e-17
152.240  1.35e-17
152.260  1.34e-17
152.280  1.33e-17
152.300  1.32e-17
152.320  1.32e-17
152.340  1.30e-17
152.360  1.30e-17
152.380  1.29e-17
152.400  1.29e-17
152.420  1.28e-17
152.440  1.29e-17
152.460  1.29e-17
152.480  1.29e-17
152.500  1.30e-17
152.520  1.31e-17
152.540  1.32e-17
152.560  1.33e-17
152.580  1.34e-17
152.600  1.34e-17
152.620  1.35e-17
152.640  1.34e-17
152.660  1.34e-17
152.680  1.33e-17
152.700  1.31e-17
152.720  1.30e-17
152.740  1.28e-17
152.760  1.25e-17
152.780  1.24e-17
152.800  1.22e-17
152.820  1.20e-17
152.840  1.18e-17
152.860  1.17e-17
152.880  1.15e-17
152.900  1.14e-17
152.920  1.12e-17
152.940  1.11e-17
152.960  1.11e-17
152.980  1.10e-17
153.000  1.09e-17
153.020  1.08e-17
153.040  1.09e-17
153.060  1.08e-17
153.080  1.08e-17
153.100  1.07e-17
153.120  1.07e-17
153.140  1.07e-17
153.160  1.07e-17
153.180  1.07e-17
153.200  1.07e-17
153.220  1.07e-17
153.240  1.07e-17
153.260  1.06e-17
153.280  1.06e-17
153.300  1.06e-17
153.320  1.07e-17
153.340  1.07e-17
153.360  1.06e-17
153.380  1.07e-17
153.400  1.07e-17
153.420  1.07e-17
153.440  1.07e-17
153.460  1.07e-17
153.480  1.08e-17
153.500  1.08e-17
153.520  1.08e-17
153.540  1.08e-17
153.560  1.09e-17
153.580  1.09e-17
153.600  1.09e-17
153.620  1.09e-17
153.640  1.10e-17
153.660  1.09e-17
153.680  1.10e-17
153.700  1.10e-17
153.720  1.09e-17
153.740  1.10e-17
153.760  1.10e-17
153.780  1.10e-17
153.800  1.11e-17
153.820  1.11e-17
153.840  1.11e-17
153.860  1.11e-17
153.880  1.12e-17
153.900  1.11e-17
153.920  1.12e-17
153.940  1.12e-17
153.960  1.12e-17
153.980  1.12e-17
154.000  1.13e-17
154.020  1.13e-17
154.040  1.13e-17
154.060  1.13e-17
154.080  1.14e-17
154.100  1.14e-17
154.120  1.14e-17
154.140  1.14e-17
154.160  1.13e-17
154.180  1.13e-17
154.200  1.13e-17
154.220  1.14e-17
154.240  1.14e-17
154.260  1.13e-17
154.280  1.13e-17
154.300  1.13e-17
154.320  1.13e-17
154.340  1.13e-17
154.360  1.13e-17
154.380  1.13e-17
154.400  1.14e-17
154.420  1.14e-17
154.440  1.14e-17
154.460  1.13e-17
154.480  1.13e-17
154.500  1.14e-17
154.520  1.13e-17
154.540  1.14e-17
154.560  1.14e-17
154.580  1.14e-17
154.600  1.14e-17
154.620  1.14e-17
154.640  1.13e-17
154.660  1.13e-17
154.680  1.14e-17
154.700  1.14e-17
154.720  1.14e-17
154.740  1.14e-17
154.760  1.14e-17
154.780  1.14e-17
154.800  1.13e-17
154.820  1.14e-17
154.840  1.13e-17
154.860  1.14e-17
154.880  1.14e-17
154.900  1.13e-17
154.920  1.13e-17
154.940  1.14e-17
154.960  1.14e-17
154.980  1.14e-17
155.000  1.13e-17
155.020  1.13e-17
155.040  1.13e-17
155.060  1.14e-17
155.080  1.13e-17
155.100  1.13e-17
155.120  1.13e-17
155.140  1.14e-17
155.160  1.14e-17
155.180  1.14e-17
155.200  1.14e-17
155.220  1.14e-17
155.240  1.14e-17
155.260  1.14e-17
155.280  1.14e-17
155.300  1.14e-17
155.320  1.14e-17
155.340  1.14e-17
155.360  1.14e-17
155.380  1.14e-17
155.400  1.14e-17
155.420  1.15e-17
155.440  1.15e-17
155.460  1.15e-17
155.480  1.15e-17
155.500  1.15e-17
155.520  1.15e-17
155.540  1.15e-17
155.560  1.15e-17
155.580  1.15e-17
155.600  1.15e-17
155.620  1.15e-17
155.640  1.15e-17
155.660  1.16e-17
155.680  1.16e-17
155.700  1.15e-17
155.720  1.16e-17
155.740  1.16e-17
155.760  1.16e-17
155.780  1.16e-17
155.800  1.17e-17
155.820  1.16e-17
155.840  1.17e-17
155.860  1.17e-17
155.880  1.17e-17
155.900  1.17e-17
155.920  1.18e-17
155.940  1.18e-17
155.960  1.17e-17
155.980  1.17e-17
156.000  1.19e-17
156.020  1.18e-17
156.040  1.18e-17
156.060  1.19e-17
156.080  1.18e-17
156.100  1.19e-17
156.120  1.19e-17
156.140  1.19e-17
156.160  1.20e-17
156.180  1.20e-17
156.200  1.20e-17
156.220  1.21e-17
156.240  1.20e-17
156.260  1.21e-17
156.280  1.21e-17
156.300  1.22e-17
156.320  1.22e-17
156.340  1.23e-17
156.360  1.23e-17
156.380  1.24e-17
156.400  1.24e-17
156.420  1.24e-17
156.440  1.25e-17
156.460  1.25e-17
156.480  1.26e-17
156.500  1.26e-17
156.520  1.26e-17
156.540  1.27e-17
156.560  1.27e-17
156.580  1.28e-17
156.600  1.28e-17
156.620  1.29e-17
156.640  1.29e-17
156.660  1.30e-17
156.680  1.30e-17
156.700  1.30e-17
156.720  1.31e-17
156.740  1.31e-17
156.760  1.32e-17
156.780  1.33e-17
156.800  1.33e-17
156.820  1.32e-17
156.840  1.34e-17
156.860  1.34e-17
156.880  1.34e-17
156.900  1.35e-17
156.920  1.35e-17
156.940  1.36e-17
156.960  1.36e-17
156.980  1.37e-17
157.000  1.36e-17
157.020  1.37e-17
157.040  1.37e-17
157.060  1.38e-17
157.080  1.38e-17
157.100  1.38e-17
157.120  1.38e-17
157.140  1.39e-17
157.160  1.39e-17
157.180  1.39e-17
157.200  1.39e-17
157.220  1.40e-17
157.240  1.40e-17
157.260  1.40e-17
157.280  1.40e-17
157.300  1.40e-17
157.320  1.40e-17
157.340  1.40e-17
157.360  1.40e-17
157.380  1.41e-17
157.400  1.40e-17
157.420  1.40e-17
157.440  1.40e-17
157.460  1.41e-17
157.480  1.40e-17
157.500  1.39e-17
157.520  1.40e-17
157.540  1.40e-17
157.560  1.39e-17
157.580  1.39e-17
157.600  1.39e-17
157.620  1.38e-17
157.650  1.38e-17
157.670  1.38e-17
157.690  1.38e-17
157.710  1.38e-17
157.730  1.37e-17
157.750  1.37e-17
157.770  1.37e-17
157.790  1.37e-17
157.810  1.36e-17
157.830  1.36e-17
157.850  1.35e-17
157.870  1.35e-17
157.890  1.35e-17
157.910  1.34e-17
157.930  1.35e-17
157.950  1.33e-17
157.970  1.33e-17
157.990  1.32e-17
158.010  1.33e-17
158.030  1.32e-17
158.050  1.32e-17
158.070  1.31e-17
158.090  1.31e-17
158.110  1.31e-17
158.130  1.30e-17
158.150  1.30e-17
158.170  1.30e-17
158.190  1.30e-17
158.210  1.28e-17
158.230  1.29e-17
158.250  1.28e-17
158.270  1.28e-17
158.290  1.27e-17
158.310  1.27e-17
158.330  1.27e-17
158.350  1.28e-17
158.370  1.27e-17
158.390  1.27e-17
158.410  1.27e-17
158.430  1.26e-17
158.450  1.26e-17
158.470  1.26e-17
158.490  1.26e-17
158.510  1.26e-17
158.530  1.26e-17
158.550  1.26e-17
158.570  1.26e-17
158.590  1.25e-17
158.610  1.26e-17
158.630  1.25e-17
158.650  1.25e-17
158.670  1.25e-17
158.690  1.25e-17
158.710  1.26e-17
158.730  1.25e-17
158.750  1.25e-17
158.770  1.26e-17
158.790  1.25e-17
158.810  1.26e-17
158.830  1.26e-17
158.850  1.25e-17
158.870  1.25e-17
158.890  1.25e-17
158.910  1.24e-17
158.930  1.25e-17
158.950  1.24e-17
158.970  1.24e-17
158.990  1.24e-17
159.010  1.24e-17
159.030  1.24e-17
159.050  1.23e-17
159.070  1.24e-17
159.090  1.23e-17
159.110  1.23e-17
159.130  1.23e-17
159.150  1.24e-17
159.170  1.23e-17
159.190  1.23e-17
159.210  1.23e-17
159.230  1.23e-17
159.250  1.23e-17
159.270  1.24e-17
159.290  1.24e-17
159.310  1.24e-17
159.330  1.24e-17
159.350  1.23e-17
159.370  1.24e-17
159.390  1.24e-17
159.410  1.24e-17
159.430  1.24e-17
159.450  1.25e-17
159.470  1.24e-17
159.490  1.24e-17
159.510  1.24e-17
159.530  1.25e-17
159.550  1.25e-17
159.570  1.25e-17
159.590  1.25e-17
159.610  1.25e-17
159.630  1.25e-17
159.650  1.26e-17
159.670  1.26e-17
159.690  1.26e-17
159.710  1.26e-17
159.730  1.26e-17
159.750  1.26e-17
159.770  1.27e-17
159.790  1.28e-17
159.810  1.28e-17
159.830  1.28e-17
159.850  1.29e-17
159.870  1.29e-17
159.890  1.30e-17
159.910  1.30e-17
159.930  1.30e-17
159.950  1.30e-17
159.970  1.31e-17
159.990  1.31e-17
160.010  1.32e-17
160.030  1.31e-17
160.050  1.31e-17
160.070  1.31e-17
160.090  1.32e-17
160.110  1.32e-17
160.130  1.31e-17
160.150  1.31e-17
160.170  1.31e-17
160.190  1.31e-17
160.210  1.30e-17
160.230  1.31e-17
160.250  1.31e-17
160.270  1.32e-17
160.290  1.32e-17
160.310  1.31e-17
160.330  1.31e-17
160.350  1.32e-17
160.370  1.32e-17
160.390  1.32e-17
160.410  1.32e-17
160.430  1.32e-17
160.450  1.33e-17
160.470  1.33e-17
160.490  1.34e-17
160.510  1.34e-17
160.530  1.33e-17
160.550  1.35e-17
160.570  1.34e-17
160.590  1.35e-17
160.610  1.35e-17
160.630  1.35e-17
160.650  1.35e-17
160.670  1.36e-17
160.690  1.35e-17
160.710  1.36e-17
160.730  1.35e-17
160.750  1.36e-17
160.770  1.35e-17
160.790  1.36e-17
160.810  1.35e-17
160.830  1.35e-17
160.850  1.36e-17
160.870  1.36e-17
160.890  1.36e-17
160.910  1.36e-17
160.930  1.37e-17
160.950  1.37e-17
160.970  1.38e-17
160.990  1.37e-17
161.010  1.38e-17
161.030  1.39e-17
161.050  1.39e-17
161.070  1.40e-17
161.090  1.40e-17
161.110  1.40e-17
161.130  1.41e-17
161.150  1.41e-17
161.170  1.41e-17
161.190  1.40e-17
161.210  1.41e-17
161.230  1.41e-17
161.250  1.41e-17
161.270  1.41e-17
161.290  1.41e-17
161.310  1.41e-17
161.330  1.41e-17
161.350  1.40e-17
161.370  1.40e-17
161.390  1.40e-17
161.410  1.39e-17
161.430  1.38e-17
161.450  1.39e-17
161.470  1.38e-17
161.490  1.38e-17
161.510  1.39e-17
161.530  1.38e-17
161.550  1.38e-17
161.570  1.39e-17
161.590  1.39e-17
161.610  1.39e-17
161.630  1.39e-17
161.650  1.40e-17
161.670  1.40e-17
161.690  1.40e-17
161.710  1.40e-17
161.730  1.40e-17
161.750  1.42e-17
161.770  1.42e-17
161.790  1.42e-17
161.810  1.43e-17
161.830  1.42e-17
161.850  1.43e-17
161.870  1.42e-17
161.890  1.42e-17
161.910  1.42e-17
161.930  1.41e-17
161.950  1.42e-17
161.970  1.41e-17
161.990  1.40e-17
162.010  1.41e-17
162.030  1.40e-17
162.050  1.41e-17
162.070  1.40e-17
162.090  1.41e-17
162.110  1.41e-17
162.130  1.41e-17
162.150  1.42e-17
162.170  1.42e-17
162.190  1.42e-17
162.210  1.43e-17
162.230  1.43e-17
162.250  1.44e-17
162.270  1.44e-17
162.290  1.45e-17
162.310  1.45e-17
162.330  1.46e-17
162.350  1.45e-17
162.370  1.46e-17
162.390  1.46e-17
162.410  1.47e-17
162.430  1.46e-17
162.450  1.46e-17
162.470  1.46e-17
162.490  1.45e-17
162.510  1.46e-17
162.530  1.46e-17
162.550  1.46e-17
162.570  1.47e-17
162.590  1.47e-17
162.610  1.47e-17
162.630  1.48e-17
162.650  1.48e-17
162.670  1.49e-17
162.690  1.49e-17
162.710  1.49e-17
162.730  1.49e-17
162.750  1.50e-17
162.770  1.50e-17
162.790  1.51e-17
162.810  1.51e-17
162.830  1.51e-17
162.850  1.52e-17
162.870  1.53e-17
162.890  1.53e-17
162.910  1.53e-17
162.930  1.54e-17
162.950  1.54e-17
162.970  1.54e-17
162.990  1.54e-17
163.010  1.55e-17
163.030  1.55e-17
163.050  1.55e-17
163.070  1.56e-17
163.090  1.56e-17
163.110  1.56e-17
163.130  1.56e-17
163.150  1.56e-17
163.170  1.57e-17
163.190  1.58e-17
163.210  1.58e-17
163.230  1.59e-17
163.250  1.59e-17
163.270  1.60e-17
163.290  1.61e-17
163.310  1.63e-17
163.330  1.64e-17
163.350  1.65e-17
163.370  1.67e-17
163.390  1.68e-17
163.410  1.70e-17
163.430  1.72e-17
163.450  1.73e-17
163.470  1.74e-17
163.490  1.75e-17
163.510  1.78e-17
163.530  1.78e-17
163.550  1.78e-17
163.570  1.79e-17
163.590  1.78e-17
163.610  1.78e-17
163.630  1.77e-17
163.650  1.77e-17
163.670  1.77e-17
163.690  1.76e-17
163.710  1.77e-17
163.730  1.78e-17
163.750  1.77e-17
163.770  1.78e-17
163.790  1.78e-17
163.810  1.79e-17
163.830  1.80e-17
163.850  1.81e-17
163.870  1.82e-17
163.890  1.82e-17
163.910  1.84e-17
163.930  1.84e-17
163.950  1.84e-17
163.970  1.84e-17
163.990  1.85e-17
164.010  1.85e-17
164.030  1.85e-17
164.050  1.86e-17
164.070  1.87e-17
164.090  1.87e-17
164.110  1.87e-17
164.130  1.87e-17
164.150  1.87e-17
164.170  1.87e-17
164.190  1.86e-17
164.210  1.86e-17
164.230  1.85e-17
164.250  1.83e-17
164.270  1.83e-17
164.290  1.81e-17
164.310  1.80e-17
164.330  1.80e-17
164.350  1.79e-17
164.370  1.79e-17
164.390  1.79e-17
164.410  1.79e-17
164.430  1.79e-17
164.450  1.80e-17
164.470  1.81e-17
164.490  1.81e-17
164.510  1.82e-17
164.530  1.83e-17
164.550  1.85e-17
164.570  1.86e-17
164.590  1.89e-17
164.610  1.90e-17
164.630  1.93e-17
164.650  1.97e-17
164.670  2.00e-17
164.690  2.02e-17
164.710  2.04e-17
164.730  2.06e-17
164.750  2.06e-17
164.770  2.06e-17
164.790  2.05e-17
164.810  2.02e-17
164.830  1.99e-17
164.850  1.96e-17
164.870  1.93e-17
164.890  1.90e-17
164.910  1.87e-17
164.930  1.85e-17
164.950  1.83e-17
164.980  1.82e-17
165.000  1.81e-17
165.020  1.79e-17
165.040  1.79e-17
165.060  1.79e-17
165.080  1.78e-17
165.100  1.77e-17
165.120  1.76e-17
165.140  1.77e-17
165.160  1.76e-17
165.180  1.76e-17
165.200  1.76e-17
165.220  1.75e-17
165.240  1.75e-17
165.260  1.75e-17
165.280  1.74e-17
165.300  1.75e-17
165.320  1.74e-17
165.340  1.73e-17
165.360  1.73e-17
165.380  1.73e-17
165.400  1.72e-17
165.420  1.71e-17
165.440  1.71e-17
165.460  1.70e-17
165.480  1.70e-17
165.500  1.70e-17
165.520  1.69e-17
165.540  1.70e-17
165.560  1.68e-17
165.580  1.69e-17
165.600  1.68e-17
165.620  1.68e-17
165.640  1.68e-17
165.660  1.68e-17
165.680  1.68e-17
165.700  1.68e-17
165.720  1.68e-17
165.740  1.68e-17
165.760  1.67e-17
165.780  1.68e-17
165.800  1.68e-17
165.820  1.68e-17
165.840  1.68e-17
165.860  1.68e-17
165.880  1.69e-17
165.900  1.69e-17
165.920  1.69e-17
165.940  1.69e-17
165.960  1.70e-17
165.980  1.70e-17
166.000  1.69e-17
166.020  1.70e-17
166.040  1.70e-17
166.060  1.71e-17
166.080  1.70e-17
166.100  1.70e-17
166.120  1.71e-17
166.140  1.72e-17
166.160  1.71e-17
166.180  1.73e-17
166.200  1.73e-17
166.220  1.74e-17
166.240  1.75e-17
166.260  1.74e-17
166.280  1.76e-17
166.300  1.75e-17
166.320  1.75e-17
166.340  1.75e-17
166.360  1.76e-17
166.380  1.77e-17
166.400  1.77e-17
166.420  1.77e-17
166.440  1.78e-17
166.460  1.76e-17
166.480  1.76e-17
166.500  1.77e-17
166.520  1.77e-17
166.540  1.77e-17
166.560  1.77e-17
166.580  1.77e-17
166.600  1.76e-17
166.620  1.76e-17
166.640  1.76e-17
166.660  1.78e-17
166.680  1.77e-17
166.700  1.77e-17
166.720  1.76e-17
166.740  1.76e-17
166.760  1.76e-17
166.780  1.76e-17
166.800  1.76e-17
166.820  1.76e-17
166.840  1.76e-17
166.860  1.77e-17
166.880  1.76e-17
166.900  1.77e-17
166.920  1.77e-17
166.940  1.76e-17
166.960  1.78e-17
166.980  1.77e-17
167.000  1.78e-17
167.020  1.78e-17
167.040  1.79e-17
167.060  1.79e-17
167.080  1.80e-17
167.100  1.79e-17
167.120  1.80e-17
167.140  1.80e-17
167.160  1.80e-17
167.180  1.82e-17
167.200  1.82e-17
167.220  1.82e-17
167.240  1.83e-17
167.260  1.84e-17
167.280  1.84e-17
167.300  1.85e-17
167.320  1.87e-17
167.340  1.87e-17
167.360  1.89e-17
167.380  1.90e-17
167.400  1.91e-17
167.420  1.93e-17
167.440  1.94e-17
167.460  1.95e-17
167.480  1.97e-17
167.500  1.98e-17
167.520  2.00e-17
167.540  2.02e-17
167.560  2.04e-17
167.580  2.05e-17
167.600  2.07e-17
167.620  2.09e-17
167.640  2.10e-17
167.660  2.11e-17
167.680  2.12e-17
167.700  2.11e-17
167.720  2.13e-17
167.740  2.13e-17
167.760  2.13e-17
167.780  2.13e-17
167.800  2.12e-17
167.820  2.12e-17
167.840  2.12e-17
167.860  2.11e-17
167.880  2.10e-17
167.900  2.09e-17
167.920  2.08e-17
167.940  2.08e-17
167.960  2.05e-17
167.980  2.05e-17
168.000  2.04e-17
168.020  2.03e-17
168.040  2.02e-17
168.060  2.00e-17
168.080  2.00e-17
168.100  1.98e-17
168.120  1.98e-17
168.140  1.98e-17
168.160  1.96e-17
168.180  1.96e-17
168.200  1.95e-17
168.220  1.96e-17
168.240  1.95e-17
168.260  1.96e-17
168.280  1.94e-17
168.300  1.94e-17
168.320  1.93e-17
168.340  1.94e-17
168.360  1.94e-17
168.380  1.93e-17
168.400  1.93e-17
168.420  1.93e-17
168.440  1.93e-17
168.460  1.92e-17
168.480  1.92e-17
168.500  1.93e-17
168.520  1.91e-17
168.540  1.91e-17
168.560  1.90e-17
168.580  1.90e-17
168.600  1.90e-17
168.620  1.89e-17
168.640  1.89e-17
168.660  1.90e-17
168.680  1.89e-17
168.700  1.91e-17
168.720  1.88e-17
168.740  1.89e-17
168.760  1.89e-17
168.780  1.88e-17
168.800  1.89e-17
168.820  1.89e-17
168.840  1.89e-17
168.860  1.88e-17
168.880  1.90e-17
168.900  1.90e-17
168.920  1.89e-17
168.940  1.90e-17
168.960  1.90e-17
168.980  1.91e-17
169.000  1.91e-17
169.020  1.91e-17
169.040  1.92e-17
169.060  1.91e-17
169.080  1.91e-17
169.100  1.91e-17
169.120  1.92e-17
169.140  1.92e-17
169.160  1.92e-17
169.180  1.92e-17
169.200  1.94e-17
169.220  1.94e-17
169.240  1.95e-17
169.260  1.94e-17
169.280  1.95e-17
169.300  1.94e-17
169.320  1.94e-17
169.340  1.96e-17
169.360  1.97e-17
169.380  1.97e-17
169.400  1.97e-17
169.420  1.98e-17
169.440  1.97e-17
169.460  2.00e-17
169.480  1.99e-17
169.500  1.99e-17
169.520  2.00e-17
169.540  1.99e-17
169.560  2.00e-17
169.580  2.01e-17
169.600  2.01e-17
169.620  2.01e-17
169.640  2.03e-17
169.660  2.01e-17
169.680  2.02e-17
169.700  2.03e-17
169.720  2.03e-17
169.740  2.04e-17
169.760  2.04e-17
169.780  2.04e-17
169.800  2.05e-17
169.820  2.05e-17
169.840  2.05e-17
169.860  2.05e-17
169.880  2.06e-17
169.900  2.05e-17
169.920  2.05e-17
169.940  2.07e-17
169.960  2.07e-17
169.980  2.07e-17
170.000  2.07e-17
170.020  2.07e-17
170.040  2.08e-17
170.060  2.09e-17
170.080  2.07e-17
170.100  2.10e-17
170.130  2.09e-17
170.150  2.09e-17
170.170  2.10e-17
170.190  2.09e-17
170.210  2.11e-17
170.230  2.12e-17
170.250  2.12e-17
170.270  2.12e-17
170.290  2.13e-17
170.310  2.14e-17
170.330  2.15e-17
170.350  2.16e-17
170.370  2.17e-17
170.390  2.16e-17
170.410  2.16e-17
170.430  2.17e-17
170.450  2.17e-17
170.470  2.18e-17
170.490  2.17e-17
170.510  2.18e-17
170.530  2.18e-17
170.550  2.18e-17
170.570  2.18e-17
170.590  2.17e-17
170.610  2.17e-17
170.630  2.17e-17
170.650  2.16e-17
170.670  2.16e-17
170.690  2.15e-17
170.710  2.14e-17
170.730  2.13e-17
170.750  2.12e-17
170.770  2.12e-17
170.790  2.11e-17
170.810  2.10e-17
170.830  2.08e-17
170.850  2.09e-17
170.870  2.07e-17
170.890  2.07e-17
170.910  2.05e-17
170.930  2.04e-17
170.950  2.03e-17
170.970  2.02e-17
170.990  2.01e-17
171.010  2.00e-17
171.030  1.99e-17
171.050  1.99e-17
171.070  1.97e-17
171.090  1.97e-17
171.110  1.95e-17
171.130  1.96e-17
171.150  1.94e-17
171.170  1.94e-17
171.190  1.93e-17
171.210  1.93e-17
171.230  1.92e-17
171.250  1.92e-17
171.270  1.91e-17
171.290  1.91e-17
171.310  1.91e-17
171.330  1.92e-17
171.350  1.93e-17
171.370  1.92e-17
171.390  1.93e-17
171.410  1.92e-17
171.430  1.94e-17
171.450  1.94e-17
171.470  1.95e-17
171.490  1.95e-17
171.510  1.96e-17
171.530  1.96e-17
171.550  1.97e-17
171.570  1.98e-17
171.590  1.98e-17
171.610  1.98e-17
171.630  1.97e-17
171.650  1.99e-17
171.670  1.99e-17
171.690  1.98e-17
171.710  1.98e-17
171.730  1.98e-17
171.750  1.97e-17
171.770  1.98e-17
171.790  1.97e-17
171.810  1.97e-17
171.830  1.97e-17
171.850  1.99e-17
171.870  1.96e-17
171.890  1.96e-17
171.910  1.96e-17
171.930  1.96e-17
171.950  1.97e-17
171.970  1.95e-17
171.990  1.96e-17
172.010  1.95e-17
172.030  1.96e-17
172.050  1.96e-17
172.070  1.95e-17
172.090  1.96e-17
172.110  1.97e-17
172.130  1.96e-17
172.150  1.97e-17
172.170  1.95e-17
172.190  1.96e-17
172.210  1.98e-17
172.230  1.97e-17
172.250  1.97e-17
172.270  1.97e-17
172.290  1.98e-17
172.310  1.98e-17
172.330  2.01e-17
172.350  1.99e-17
172.370  1.99e-17
172.390  1.99e-17
172.410  1.99e-17
172.430  2.00e-17
172.450  1.99e-17
172.470  2.01e-17
172.490  2.00e-17
172.510  2.00e-17
172.530  2.00e-17
172.550  2.00e-17
172.570  2.01e-17
172.590  2.00e-17
172.610  2.01e-17
172.630  2.00e-17
172.650  2.00e-17
172.670  2.00e-17
172.690  2.00e-17
172.710  2.00e-17
172.730  2.00e-17
172.750  2.00e-17
172.770  2.00e-17
172.790  2.00e-17
172.810  1.99e-17
172.830  1.99e-17
172.850  2.00e-17
172.870  1.99e-17
172.890  2.00e-17
172.910  2.00e-17
172.930  1.99e-17
172.950  1.98e-17
172.970  2.00e-17
172.990  1.99e-17
173.010  1.98e-17
173.030  1.98e-17
173.050  1.99e-17
173.070  1.99e-17
173.090  1.98e-17
173.110  1.97e-17
173.130  1.98e-17
173.150  1.99e-17
173.170  1.98e-17
173.190  1.99e-17
173.210  1.99e-17
173.230  1.98e-17
173.250  2.00e-17
173.270  1.98e-17
173.290  1.98e-17
173.310  1.99e-17
173.330  1.99e-17
173.350  2.00e-17
173.370  2.00e-17
173.390  1.99e-17
173.410  2.01e-17
173.430  2.03e-17
173.450  2.01e-17
173.470  2.02e-17
173.490  2.04e-17
173.510  2.04e-17
173.530  2.04e-17
173.550  2.05e-17
173.570  2.07e-17
173.590  2.08e-17
173.610  2.11e-17
173.630  2.12e-17
173.650  2.13e-17
173.670  2.15e-17
173.690  2.16e-17
173.710  2.17e-17
173.730  2.18e-17
173.750  2.21e-17
173.770  2.21e-17
173.790  2.23e-17
173.810  2.23e-17
173.830  2.24e-17
173.850  2.25e-17
173.870  2.25e-17
173.890  2.26e-17
173.910  2.26e-17
173.930  2.25e-17
173.950  2.25e-17
173.970  2.23e-17
173.990  2.22e-17
174.010  2.21e-17
174.030  2.19e-17
174.050  2.18e-17
174.070  2.17e-17
174.090  2.14e-17
174.110  2.13e-17
174.130  2.10e-17
174.150  2.07e-17
174.170  2.06e-17
174.190  2.02e-17
174.210  2.02e-17
174.230  1.99e-17
174.250  1.97e-17
174.270  1.94e-17
174.300  1.92e-17
174.320  1.89e-17
174.340  1.88e-17
174.360  1.87e-17
174.380  1.85e-17
174.400  1.83e-17
174.420  1.81e-17
174.440  1.78e-17
174.460  1.77e-17
174.480  1.74e-17
174.500  1.74e-17
174.520  1.73e-17
174.540  1.71e-17
174.560  1.70e-17
174.580  1.70e-17
174.600  1.67e-17
174.620  1.67e-17
174.640  1.66e-17
174.660  1.65e-17
174.680  1.65e-17
174.700  1.64e-17
174.720  1.62e-17
174.740  1.61e-17
174.760  1.62e-17
174.780  1.61e-17
174.800  1.60e-17
174.820  1.60e-17
174.840  1.58e-17
174.860  1.58e-17
174.880  1.58e-17
174.900  1.58e-17
174.920  1.57e-17
174.940  1.58e-17
174.960  1.58e-17
174.980  1.57e-17
175.000  1.59e-17
175.020  1.57e-17
175.040  1.58e-17
175.060  1.58e-17
175.080  1.59e-17
175.100  1.60e-17
175.120  1.59e-17
175.140  1.59e-17
175.160  1.61e-17
175.180  1.61e-17
175.200  1.61e-17
175.220  1.63e-17
175.240  1.63e-17
175.260  1.64e-17
175.280  1.65e-17
175.300  1.66e-17
175.320  1.68e-17
175.340  1.68e-17
175.360  1.69e-17
175.380  1.69e-17
175.400  1.70e-17
175.420  1.72e-17
175.440  1.73e-17
175.460  1.74e-17
175.480  1.75e-17
175.500  1.76e-17
175.520  1.77e-17
175.540  1.79e-17
175.560  1.80e-17
175.580  1.81e-17
175.600  1.81e-17
175.620  1.83e-17
175.640  1.85e-17
175.660  1.85e-17
175.680  1.86e-17
175.700  1.88e-17
175.720  1.90e-17
175.740  1.91e-17
175.760  1.92e-17
175.780  1.94e-17
175.800  1.96e-17
175.820  1.97e-17
175.840  2.00e-17
175.860  2.01e-17
175.880  2.04e-17
175.900  2.04e-17
175.920  2.07e-17
175.940  2.10e-17
175.960  2.12e-17
175.980  2.15e-17
176.000  2.17e-17
176.020  2.19e-17
176.040  2.22e-17
176.060  2.25e-17
176.080  2.26e-17
176.100  2.29e-17
176.120  2.31e-17
176.140  2.36e-17
176.160  2.37e-17
176.180  2.39e-17
176.200  2.40e-17
176.220  2.45e-17
176.240  2.44e-17
176.260  2.48e-17
176.280  2.49e-17
176.300  2.51e-17
176.320  2.52e-17
176.340  2.55e-17
176.360  2.56e-17
176.380  2.58e-17
176.400  2.58e-17
176.420  2.61e-17
176.440  2.63e-17
176.460  2.63e-17
176.480  2.65e-17
176.500  2.67e-17
176.520  2.69e-17
176.540  2.70e-17
176.560  2.74e-17
176.580  2.74e-17
176.600  2.77e-17
176.620  2.79e-17
176.640  2.80e-17
176.660  2.83e-17
176.680  2.84e-17
176.700  2.87e-17
176.720  2.89e-17
176.740  2.90e-17
176.760  2.92e-17
176.780  2.93e-17
176.800  2.94e-17
176.820  2.96e-17
176.840  2.98e-17
176.860  2.97e-17
176.880  2.96e-17
176.900  2.97e-17
176.920  2.97e-17
176.940  2.96e-17
176.960  2.97e-17
176.980  2.96e-17
177.000  2.94e-17
177.020  2.94e-17
177.040  2.94e-17
177.060  2.90e-17
177.080  2.91e-17
177.100  2.89e-17
177.120  2.87e-17
177.140  2.86e-17
177.160  2.84e-17
177.180  2.80e-17
177.200  2.80e-17
177.220  2.79e-17
177.240  2.74e-17
177.260  2.74e-17
177.280  2.72e-17
177.300  2.70e-17
177.320  2.69e-17
177.340  2.65e-17
177.360  2.63e-17
177.380  2.62e-17
177.400  2.59e-17
177.420  2.56e-17
177.440  2.52e-17
177.460  2.50e-17
177.480  2.47e-17
177.500  2.45e-17
177.520  2.41e-17
177.540  2.40e-17
177.560  2.36e-17
177.580  2.35e-17
177.600  2.33e-17
177.620  2.30e-17
177.640  2.29e-17
177.660  2.25e-17
177.680  2.22e-17
177.700  2.22e-17
177.720  2.18e-17
177.740  2.15e-17
177.760  2.14e-17
177.780  2.12e-17
177.800  2.09e-17
177.820  2.07e-17
177.850  2.04e-17
177.870  2.05e-17
177.890  2.02e-17
177.910  2.00e-17
177.930  1.99e-17
177.950  1.97e-17
177.970  1.96e-17
177.990  1.95e-17
178.010  1.95e-17
178.030  1.93e-17
178.050  1.94e-17
178.070  1.93e-17
178.090  1.94e-17
178.110  1.92e-17
178.130  1.90e-17
178.150  1.90e-17
178.170  1.91e-17
178.190  1.90e-17
178.210  1.93e-17
178.230  1.94e-17
178.250  1.95e-17
178.270  1.94e-17
178.290  1.93e-17
178.310  1.88e-17
178.330  1.93e-17
178.350  1.96e-17
178.370  1.97e-17
178.390  1.93e-17
178.410  1.92e-17
178.430  1.95e-17
178.450  1.89e-17
178.470  1.91e-17
178.490  1.90e-17
178.510  1.91e-17
178.530  1.91e-17
178.550  1.90e-17
178.570  1.89e-17
178.590  1.88e-17
178.610  1.89e-17
178.630  1.88e-17
178.650  1.85e-17
178.670  1.92e-17
178.690  1.87e-17
178.710  1.89e-17
178.730  1.87e-17
178.750  1.90e-17
178.770  1.90e-17
178.790  1.90e-17
178.810  1.92e-17
178.830  1.96e-17
178.850  1.99e-17
178.870  1.96e-17
178.890  1.99e-17
178.910  2.06e-17
178.930  2.01e-17
178.950  2.06e-17
178.970  2.08e-17
178.990  2.09e-17
179.010  2.15e-17
179.030  2.16e-17
179.050  2.16e-17
179.070  2.16e-17
179.090  2.21e-17
179.110  2.19e-17
179.130  2.22e-17
179.150  2.24e-17
179.170  2.25e-17
179.190  2.28e-17
179.210  2.23e-17
179.230  2.23e-17
179.250  2.28e-17
179.270  2.30e-17
179.290  2.26e-17
179.310  2.35e-17
179.330  2.34e-17
179.350  2.34e-17
179.370  2.40e-17
179.390  2.39e-17
179.410  2.45e-17
179.430  2.49e-17
179.450  2.53e-17
179.470  2.55e-17
179.490  2.61e-17
179.510  2.70e-17
179.530  2.81e-17
179.550  2.82e-17
179.570  2.88e-17
179.590  2.95e-17
179.610  3.02e-17
179.630  3.07e-17
179.650  3.16e-17
179.670  3.21e-17
179.690  3.25e-17
179.710  3.26e-17
179.730  3.32e-17
179.750  3.35e-17
179.770  3.35e-17
179.790  3.34e-17
179.810  3.31e-17
179.830  3.29e-17
179.850  3.27e-17
179.870  3.25e-17
179.890  3.27e-17
179.910  3.19e-17
179.930  3.17e-17
179.950  3.15e-17
179.970  3.10e-17
179.990  3.09e-17
180.010  3.04e-17
180.030  3.10e-17
180.050  3.01e-17
180.070  3.07e-17
180.090  3.04e-17
180.110  3.05e-17
180.130  3.04e-17
180.150  3.09e-17
180.170  3.11e-17
180.190  3.15e-17
180.210  3.21e-17
180.230  3.24e-17
180.250  3.26e-17
180.270  3.31e-17
180.290  3.38e-17
180.310  3.45e-17
180.330  3.55e-17
180.350  3.59e-17
180.370  3.69e-17
180.390  3.80e-17
180.410  3.85e-17
180.430  3.97e-17
180.450  4.06e-17
180.470  4.08e-17
180.490  4.20e-17
180.510  4.25e-17
180.530  4.34e-17
180.550  4.38e-17
180.570  4.41e-17
180.590  4.46e-17
180.610  4.49e-17
180.630  4.53e-17
180.650  4.54e-17
180.670  4.58e-17
180.690  4.62e-17
180.710  4.67e-17
180.730  4.68e-17
180.750  4.77e-17
180.770  4.80e-17
180.790  4.84e-17
180.810  4.92e-17
180.830  5.04e-17
180.850  5.10e-17
180.870  5.22e-17
180.890  5.39e-17
180.910  5.49e-17
180.930  5.67e-17
180.950  5.89e-17
180.970  6.07e-17
180.990  6.26e-17
181.020  6.51e-17
181.040  6.73e-17
181.060  7.00e-17
181.080  7.22e-17
181.100  7.45e-17
181.120  7.70e-17
181.140  7.89e-17
181.160  8.09e-17
181.180  8.13e-17
181.200  8.25e-17
181.220  8.25e-17
181.240  8.19e-17
181.260  8.12e-17
181.280  7.93e-17
181.300  7.72e-17
181.320  7.52e-17
181.340  7.28e-17
181.360  6.98e-17
181.380  6.75e-17
181.400  6.43e-17
181.420  6.13e-17
181.440  5.92e-17
181.460  5.68e-17
181.480  5.38e-17
181.500  5.17e-17
181.520  4.97e-17
181.540  4.81e-17
181.560  4.68e-17
181.580  4.52e-17
181.600  4.29e-17
181.620  4.20e-17
181.640  4.06e-17
181.660  3.96e-17
181.680  3.84e-17
181.700  3.76e-17
181.720  3.63e-17
181.740  3.62e-17
181.760  3.54e-17
181.780  3.45e-17
181.800  3.36e-17
181.820  3.32e-17
181.840  3.27e-17
181.860  3.18e-17
181.880  3.16e-17
181.900  3.10e-17
181.920  3.01e-17
181.940  2.94e-17
181.960  2.91e-17
181.980  2.79e-17
182.000  2.75e-17
182.020  2.66e-17
182.040  2.59e-17
182.060  2.55e-17
182.080  2.47e-17
182.100  2.40e-17
182.120  2.33e-17
182.140  2.25e-17
182.160  2.19e-17
182.180  2.15e-17
182.200  2.08e-17
182.220  2.02e-17
182.240  1.99e-17
182.260  1.95e-17
182.280  1.90e-17
182.300  1.84e-17
182.320  1.87e-17
182.340  1.81e-17
182.360  1.77e-17
182.380  1.77e-17
182.400  1.75e-17
182.420  1.72e-17
182.440  1.71e-17
182.460  1.68e-17
182.480  1.66e-17
182.500  1.61e-17
182.520  1.58e-17
182.540  1.57e-17
182.560  1.60e-17
182.580  1.56e-17
182.600  1.58e-17
182.620  1.58e-17
182.640  1.56e-17
182.660  1.58e-17
182.680  1.50e-17
182.700  1.54e-17
182.720  1.49e-17
182.740  1.46e-17
182.760  1.47e-17
182.780  1.46e-17
182.800  1.44e-17
182.820  1.44e-17
182.840  1.39e-17
182.860  1.39e-17
182.880  1.36e-17
182.900  1.36e-17
182.920  1.34e-17
182.940  1.32e-17
182.960  1.29e-17
182.980  1.29e-17
183.000  1.29e-17
183.020  1.23e-17
183.040  1.26e-17
183.060  1.20e-17
183.080  1.17e-17
183.100  1.17e-17
183.120  1.14e-17
183.140  1.18e-17
183.160  1.15e-17
183.180  1.14e-17
183.200  1.13e-17
183.220  1.12e-17
183.240  1.12e-17
183.260  1.08e-17
183.280  1.13e-17
183.300  1.11e-17
183.320  1.11e-17
183.340  1.08e-17
183.360  1.10e-17
183.380  1.09e-17
183.400  1.09e-17
183.420  1.05e-17
183.440  1.02e-17
183.460  1.05e-17
183.480  1.03e-17
183.500  1.05e-17
183.520  1.02e-17
183.540  1.05e-17
183.560  1.03e-17
183.580  1.01e-17
183.600  1.01e-17
183.620  9.80e-18
183.640  9.81e-18
183.660  1.01e-17
183.680  1.03e-17
183.700  1.00e-17
183.720  9.84e-18
183.740  9.70e-18
183.760  9.79e-18
183.780  9.61e-18
183.800  9.50e-18
183.820  9.72e-18
183.840  9.77e-18
183.870  9.55e-18
183.890  9.38e-18
183.910  9.40e-18
183.930  9.44e-18
183.950  9.32e-18
183.970  9.34e-18
183.990  9.41e-18
184.010  9.43e-18
184.030  9.33e-18
184.050  9.40e-18
184.070  9.49e-18
184.090  9.30e-18
184.110  9.39e-18
184.130  9.32e-18
184.150  9.36e-18
184.170  9.37e-18
184.190  9.43e-18
184.210  9.38e-18
184.230  9.44e-18
184.250  9.38e-18
184.270  9.27e-18
184.290  9.35e-18
184.310  9.41e-18
184.330  9.43e-18
184.350  9.27e-18
184.370  9.33e-18
184.390  9.36e-18
184.410  9.37e-18
184.430  9.41e-18
184.450  9.43e-18
184.470  9.46e-18
184.490  9.44e-18
184.510  9.57e-18
184.530  9.47e-18
184.550  9.55e-18
184.650  9.58e-18
184.750  9.73e-18
184.850  9.50e-18
184.950  9.87e-18
185.050  9.83e-18
185.150  1.02e-17
185.250  1.02e-17
185.350  1.03e-17
185.450  1.04e-17
185.550  1.05e-17
185.650  1.10e-17
185.750  1.10e-17
185.850  1.14e-17
185.950  1.12e-17
186.050  1.16e-17
186.150  1.16e-17
186.250  1.20e-17
186.350  1.21e-17
186.450  1.21e-17
186.560  1.25e-17
186.660  1.27e-17
186.760  1.27e-17
186.860  1.29e-17
186.960  1.32e-17
187.060  1.34e-17
187.160  1.37e-17
187.260  1.37e-17
187.360  1.44e-17
187.460  1.47e-17
187.560  1.46e-17
187.660  1.50e-17
187.760  1.54e-17
187.860  1.54e-17
187.960  1.56e-17
188.060  1.60e-17
188.160  1.63e-17
188.260  1.66e-17
188.360  1.70e-17
188.460  1.75e-17
188.560  1.76e-17
188.660  1.78e-17
188.760  1.80e-17
188.860  1.84e-17
188.970  1.89e-17
189.070  1.90e-17
189.170  1.90e-17
189.270  1.95e-17
189.370  2.02e-17
189.470  2.04e-17
189.570  2.06e-17
189.670  2.08e-17
189.770  2.14e-17
189.870  2.16e-17
189.970  2.21e-17
190.070  2.22e-17
190.170  2.27e-17
190.270  2.28e-17
190.370  2.30e-17
190.470  2.34e-17
190.570  2.40e-17
190.670  2.44e-17
190.770  2.45e-17
190.870  2.48e-17
190.970  2.51e-17
191.070  2.56e-17
191.180  2.57e-17
191.280  2.62e-17
191.380  2.67e-17
191.480  2.69e-17
191.580  2.71e-17
191.680  2.74e-17
191.780  2.80e-17
191.880  2.81e-17
191.980  2.87e-17
192.080  2.89e-17
192.180  2.90e-17
192.280  2.98e-17
192.380  2.99e-17
192.480  3.05e-17
192.580  3.06e-17
192.680  3.11e-17
192.780  3.13e-17
192.880  3.17e-17
192.980  3.22e-17
193.080  3.25e-17
193.180  3.28e-17
193.280  3.31e-17
193.390  3.39e-17
193.490  3.40e-17
193.590  3.45e-17
193.690  3.47e-17
193.790  3.51e-17
193.890  3.57e-17
193.990  3.59e-17
194.090  3.65e-17
194.190  3.65e-17
194.290  3.71e-17
194.390  3.76e-17
194.490  3.78e-17
194.590  3.83e-17
194.690  3.88e-17
194.790  3.90e-17
194.890  3.98e-17
194.990  4.02e-17
195.090  4.03e-17
195.190  4.08e-17
195.290  4.10e-17
195.400  4.15e-17
195.500  4.15e-17
195.600  4.23e-17
195.700  4.24e-17
195.800  4.30e-17
195.900  4.30e-17
196.000  4.38e-17
196.100  4.40e-17
196.200  4.39e-17
196.300  4.49e-17
196.400  4.49e-17
196.500  4.51e-17
196.600  4.59e-17
196.700  4.64e-17
196.800  4.67e-17
196.900  4.70e-17
197.000  4.74e-17
197.100  4.76e-17
197.200  4.82e-17
197.310  4.82e-17
197.410  4.89e-17
197.510  4.89e-17
197.610  4.92e-17
197.710  4.94e-17
197.810  4.94e-17
197.910  5.00e-17
198.010  5.04e-17
198.110  5.04e-17
198.210  5.09e-17
198.310  5.12e-17
198.410  5.16e-17
198.510  5.17e-17
198.610  5.21e-17
198.710  5.25e-17
198.810  5.30e-17
198.910  5.34e-17
199.010  5.38e-17
199.120  5.37e-17
199.220  5.42e-17
199.320  5.43e-17
199.420  5.46e-17
199.520  5.47e-17
199.620  5.53e-17
199.720  5.55e-17
199.820  5.53e-17
199.920  5.57e-17
200.020  5.62e-17
200.120  5.61e-17
200.220  5.66e-17
200.320  5.68e-17
200.420  5.70e-17
200.520  5.73e-17
200.620  5.80e-17
200.720  5.81e-17
200.830  5.83e-17
200.930  5.88e-17
201.030  5.88e-17
201.130  5.92e-17
201.230  5.95e-17
201.330  5.94e-17
201.430  5.95e-17
201.530  5.97e-17
201.630  5.97e-17
201.730  5.96e-17
201.830  5.96e-17
201.930  5.98e-17
202.030  6.00e-17
202.130  6.00e-17
202.230  6.01e-17
202.330  5.99e-17
202.430  6.05e-17
202.540  6.04e-17
202.640  6.05e-17
202.740  6.08e-17
202.840  6.09e-17
202.940  6.09e-17
203.040  6.09e-17
203.140  6.12e-17
203.240  6.12e-17
203.340  6.13e-17
203.440  6.08e-17
203.540  6.09e-17
203.640  6.08e-17
203.740  6.03e-17
203.840  6.05e-17
203.940  6.02e-17
204.040  6.02e-17
204.150  5.99e-17
204.250  5.99e-17
204.350  5.98e-17
204.450  6.01e-17
204.550  5.99e-17
204.650  6.03e-17
204.750  6.02e-17
204.850  6.03e-17
204.950  6.04e-17
205.050  6.03e-17
205.150  6.02e-17
205.250  6.01e-17
205.350  5.98e-17
205.450  5.99e-17
205.550  5.97e-17
205.650  5.96e-17
205.760  5.91e-17
205.860  5.89e-17
205.960  5.87e-17
206.060  5.84e-17
206.160  5.83e-17
206.260  5.77e-17
206.360  5.77e-17
206.460  5.76e-17
206.560  5.77e-17
206.660  5.74e-17
206.760  5.75e-17
206.860  5.76e-17
206.960  5.75e-17
207.060  5.71e-17
207.160  5.74e-17
207.270  5.66e-17
207.370  5.67e-17
207.470  5.66e-17
207.570  5.62e-17
207.670  5.57e-17
207.770  5.52e-17
207.870  5.47e-17
207.970  5.40e-17
208.070  5.38e-17
208.170  5.32e-17
208.270  5.29e-17
208.370  5.20e-17
208.470  5.18e-17
208.570  5.14e-17
208.670  5.10e-17
208.780  5.08e-17
208.880  5.06e-17
208.980  5.03e-17
209.080  5.00e-17
209.180  4.99e-17
209.280  4.95e-17
209.380  4.91e-17
209.480  4.87e-17
209.580  4.84e-17
209.680  4.80e-17
209.780  4.73e-17
209.880  4.66e-17
209.980  4.60e-17
210.080  4.56e-17
210.190  4.48e-17
210.290  4.40e-17
210.390  4.39e-17
210.490  4.28e-17
210.590  4.23e-17
210.690  4.19e-17
210.790  4.13e-17
210.890  4.11e-17
210.990  4.06e-17
211.090  4.02e-17
211.190  3.97e-17
211.290  3.95e-17
211.390  3.94e-17
211.500  3.88e-17
211.600  3.83e-17
211.700  3.79e-17
211.800  3.73e-17
211.900  3.68e-17
212.000  3.62e-17
212.100  3.53e-17
212.200  3.53e-17
212.300  3.43e-17
212.400  3.38e-17
212.500  3.32e-17
212.600  3.28e-17
212.700  3.21e-17
212.800  3.20e-17
212.910  3.13e-17
213.010  3.09e-17
213.110  3.07e-17
213.210  3.03e-17
213.310  3.02e-17
213.410  2.98e-17
213.510  2.97e-17
213.610  2.93e-17
213.710  2.93e-17
213.810  2.85e-17
213.910  2.88e-17
214.010  2.80e-17
214.110  2.73e-17
214.220  2.68e-17
214.320  2.65e-17
214.420  2.58e-17
214.520  2.56e-17
214.620  2.45e-17
214.720  2.39e-17
214.820  2.32e-17
214.920  2.26e-17
215.020  2.19e-17
215.120  2.13e-17
215.220  2.04e-17
215.320  1.97e-17
215.430  1.92e-17
215.530  1.86e-17
215.630  1.81e-17
215.730  1.72e-17
215.830  1.68e-17
215.930  1.60e-17
216.030  1.56e-17
216.130  1.49e-17
216.230  1.44e-17
216.330  1.37e-17
216.430  1.35e-17
216.530  1.28e-17
216.630  1.23e-17
216.740  1.20e-17
216.840  1.17e-17
216.940  1.10e-17
217.040  1.04e-17
217.140  1.01e-17
217.240  1.01e-17
217.340  9.52e-18
217.440  9.35e-18
217.540  8.88e-18
217.640  8.35e-18
217.740  8.34e-18
217.840  8.05e-18
217.950  7.26e-18
218.050  7.49e-18
218.150  7.28e-18
218.250  7.01e-18
218.350  6.43e-18
218.450  6.45e-18
218.550  6.20e-18
218.650  5.94e-18
218.750  6.11e-18
218.850  5.48e-18
218.950  5.31e-18
219.050  5.24e-18
219.160  5.27e-18
219.260  4.71e-18
219.360  4.95e-18
219.460  4.42e-18
219.560  4.81e-18
219.660  4.29e-18
219.760  4.50e-18
219.860  3.91e-18
219.960  3.89e-18
220.060  3.87e-18
220.160  3.74e-18
220.270  3.68e-18
220.370  3.59e-18
220.470  3.60e-18
220.570  3.34e-18
220.670  3.20e-18
220.770  3.08e-18
220.870  3.01e-18
220.970  3.15e-18
221.070  3.02e-18
221.170  2.87e-18
221.270  2.74e-18
221.370  2.70e-18
221.480  2.88e-18
221.580  2.39e-18
221.680  2.61e-18
221.780  2.75e-18
221.880  2.50e-18
221.980  2.45e-18
222.080  2.60e-18
222.180  2.23e-18
222.280  2.67e-18
222.380  2.18e-18
222.480  2.30e-18
222.590  2.21e-18
222.690  2.03e-18
222.790  2.06e-18
222.890  2.05e-18
222.990  2.12e-18
223.090  2.07e-18
223.190  1.93e-18
223.290  1.75e-18
223.390  1.71e-18
223.490  1.74e-18
223.600  1.69e-18
223.700  1.64e-18
223.800  1.62e-18
223.900  1.88e-18
224.000  1.82e-18
224.100  1.64e-18
224.200  1.50e-18
224.300  1.31e-18
224.400  1.39e-18
224.500  1.40e-18
224.600  1.37e-18
224.710  1.39e-18
224.810  1.54e-18
224.910  1.40e-18
225.048  1.45e-18
225.116  1.44e-18
225.185  1.43e-18
225.253  1.43e-18
225.322  1.42e-18
225.390  1.41e-18
225.458  1.40e-18
225.527  1.39e-18
225.595  1.38e-18
225.664  1.37e-18
225.732  1.36e-18
225.801  1.35e-18
225.869  1.34e-18
225.938  1.34e-18
226.006  1.33e-18
226.074  1.32e-18
226.143  1.31e-18
226.211  1.30e-18
226.280  1.30e-18
226.348  1.29e-18
226.417  1.28e-18
226.485  1.27e-18
226.553  1.26e-18
226.622  1.25e-18
226.690  1.25e-18
226.759  1.24e-18
226.827  1.23e-18
226.896  1.22e-18
226.964  1.21e-18
227.032  1.21e-18
227.101  1.20e-18
227.169  1.19e-18
227.238  1.18e-18
227.306  1.17e-18
227.375  1.17e-18
227.443  1.16e-18
227.511  1.15e-18
227.580  1.15e-18
227.648  1.14e-18
227.717  1.13e-18
227.785  1.12e-18
227.854  1.12e-18
227.922  1.11e-18
227.990  1.10e-18
228.059  1.09e-18
228.127  1.09e-18
228.196  1.08e-18
228.264  1.07e-18
228.333  1.06e-18
228.401  1.06e-18
228.469  1.05e-18
228.538  1.04e-18
228.606  1.04e-18
228.675  1.03e-18
228.743  1.02e-18
228.812  1.02e-18
228.880  1.01e-18
228.948  1.00e-18
229.017  9.93e-19
229.085  9.86e-19
229.154  9.80e-19
229.222  9.72e-19
229.291  9.66e-19
229.359  9.59e-19
229.427  9.52e-19
229.496  9.45e-19
229.564  9.37e-19
229.633  9.32e-19
229.701  9.23e-19
229.770  9.16e-19
229.838  9.08e-19
229.906  9.03e-19
229.975  8.96e-19
230.043  8.89e-19
230.112  8.82e-19
230.180  8.74e-19
230.249  8.68e-19
230.317  8.62e-19
230.385  8.53e-19
230.454  8.48e-19
230.522  8.42e-19
230.591  8.35e-19
230.659  8.27e-19
230.727  8.21e-19
230.796  8.14e-19
230.864  8.06e-19
230.933  8.00e-19
231.001  7.94e-19
231.070  7.87e-19
231.138  7.81e-19
231.206  7.74e-19
231.275  7.66e-19
231.343  7.60e-19
231.412  7.54e-19
231.480  7.46e-19
231.549  7.41e-19
231.617  7.33e-19
231.685  7.26e-19
231.754  7.21e-19
231.822  7.13e-19
231.891  7.06e-19
231.959  7.01e-19
232.028  6.94e-19
232.096  6.86e-19
232.164  6.81e-19
232.233  6.74e-19
232.301  6.67e-19
232.370  6.60e-19
232.438  6.55e-19
232.507  6.48e-19
232.575  6.40e-19
232.643  6.36e-19
232.712  6.29e-19
232.780  6.22e-19
232.849  6.17e-19
232.917  6.10e-19
232.986  6.02e-19
233.054  5.97e-19
233.122  5.91e-19
233.191  5.87e-19
233.259  5.79e-19
233.328  5.73e-19
233.396  5.67e-19
233.465  5.60e-19
233.533  5.55e-19
233.601  5.48e-19
233.670  5.42e-19
233.738  5.37e-19
233.807  5.29e-19
233.875  5.24e-19
233.944  5.18e-19
234.012  5.12e-19
234.080  5.06e-19
234.149  5.00e-19
234.217  4.95e-19
234.286  4.89e-19
234.354  4.84e-19
234.422  4.77e-19
234.491  4.72e-19
234.559  4.65e-19
234.628  4.60e-19
234.696  4.55e-19
234.765  4.49e-19
234.833  4.43e-19
234.901  4.38e-19
234.970  4.32e-19
235.038  4.28e-19
235.107  4.23e-19
235.175  4.17e-19
235.244  4.11e-19
235.312  4.07e-19
235.380  4.01e-19
235.449  3.96e-19
235.517  3.92e-19
235.586  3.87e-19
235.654  3.81e-19
235.723  3.75e-19
235.791  3.73e-19
235.859  3.67e-19
235.928  3.62e-19
235.996  3.56e-19
236.065  3.52e-19
236.133  3.48e-19
236.202  3.44e-19
236.270  3.40e-19
236.338  3.35e-19
236.407  3.29e-19
236.475  3.24e-19
236.544  3.20e-19
236.612  3.16e-19
236.680  3.12e-19
236.749  3.06e-19
236.817  3.02e-19
236.886  2.99e-19
236.954  2.94e-19
237.023  2.89e-19
237.091  2.84e-19
237.159  2.81e-19
237.228  2.76e-19
237.296  2.71e-19
237.365  2.67e-19
237.433  2.64e-19
237.502  2.60e-19
237.570  2.55e-19
237.638  2.50e-19
237.707  2.47e-19
237.775  2.43e-19
237.844  2.38e-19
237.912  2.34e-19
237.981  2.31e-19
238.049  2.26e-19
238.117  2.24e-19
238.186  2.18e-19
238.254  2.15e-19
238.323  2.10e-19
238.391  2.08e-19
238.459  2.04e-19
238.528  2.01e-19
238.596  1.97e-19
238.665  1.93e-19
238.733  1.90e-19
238.802  1.86e-19
238.870  1.82e-19
238.938  1.78e-19
239.007  1.76e-19
239.075  1.72e-19
239.144  1.70e-19
239.212  1.66e-19
239.281  1.63e-19
239.349  1.60e-19
239.417  1.56e-19
239.486  1.54e-19
239.554  1.50e-19
239.623  1.48e-19
239.691  1.45e-19
239.759  1.43e-19
239.828  1.40e-19
239.896  1.37e-19
239.965  1.34e-19
240.033  1.33e-19
240.102  1.30e-19
240.170  1.26e-19
240.238  1.24e-19
240.307  1.23e-19
240.375  1.20e-19
240.444  1.18e-19
240.512  1.15e-19
240.581  1.14e-19
240.649  1.12e-19
240.717  1.09e-19
240.786  1.07e-19
240.854  1.04e-19
240.923  1.02e-19
240.991  1.01e-19
241.059  9.96e-20
241.128  9.75e-20
241.196  9.53e-20
241.265  9.37e-20
241.333  9.09e-20
241.402  9.04e-20
241.470  8.85e-20
241.538  8.65e-20
241.607  8.45e-20
241.675  8.34e-20
242.223  7.07e-20
242.291  7.07e-20
242.316  5.38e-20
242.385  5.27e-20
242.454  5.15e-20
242.522  5.02e-20
242.591  4.91e-20
242.660  4.79e-20
242.728  4.68e-20
242.797  4.56e-20
242.866  4.46e-20
242.934  4.35e-20
243.003  4.25e-20
243.072  4.14e-20
243.141  4.05e-20
243.209  3.94e-20
243.278  3.85e-20
243.347  3.75e-20
243.415  3.66e-20
243.484  3.57e-20
243.553  3.47e-20
243.622  3.39e-20
243.690  3.31e-20
243.759  3.22e-20
243.828  3.15e-20
243.896  3.06e-20
243.965  2.99e-20
244.034  2.91e-20
244.102  2.83e-20
244.171  2.77e-20
244.240  2.69e-20
244.309  2.62e-20
244.377  2.55e-20
244.446  2.49e-20
244.515  2.42e-20
244.583  2.35e-20
244.652  2.29e-20
244.721  2.24e-20
244.789  2.17e-20
244.858  2.12e-20
244.927  2.06e-20
244.996  2.01e-20
245.064  1.95e-20
245.133  1.90e-20
245.202  1.85e-20
245.270  1.80e-20
245.339  1.75e-20
245.408  1.71e-20
245.476  1.66e-20
245.545  1.62e-20
245.614  1.57e-20
245.683  1.53e-20
245.751  1.48e-20
245.820  1.44e-20
245.889  1.40e-20
245.957  1.37e-20
246.026  1.33e-20
246.095  1.29e-20
246.163  1.26e-20
246.232  1.22e-20
246.301  1.19e-20
246.370  1.15e-20
246.438  1.12e-20
246.507  1.09e-20
246.576  1.06e-20
246.644  1.03e-20
246.713  1.00e-20
246.782  9.73e-21
246.851  9.45e-21
246.919  9.22e-21
246.988  8.91e-21
247.057  8.67e-21
247.125  8.44e-21
247.194  8.17e-21
247.263  7.92e-21
247.331  7.74e-21
247.400  7.49e-21
247.469  7.28e-21
247.538  7.08e-21
247.606  6.88e-21
247.675  6.70e-21
247.744  6.51e-21
247.812  6.33e-21
247.881  6.13e-21
247.950  5.94e-21
248.018  5.80e-21
248.087  5.63e-21
248.156  5.44e-21
248.225  5.31e-21
248.293  5.16e-21
248.362  5.01e-21
248.431  4.91e-21
248.499  4.73e-21
248.568  4.60e-21
248.637  4.46e-21
248.705  4.33e-21
248.774  4.20e-21
248.843  4.09e-21
248.912  3.96e-21
248.980  3.84e-21
249.049  3.75e-21
249.118  3.65e-21
249.186  3.54e-21
249.255  3.43e-21
249.324  3.33e-21
249.392  3.24e-21
249.461  3.15e-21
249.530  3.05e-21
249.599  2.97e-21
249.667  2.88e-21
249.736  2.81e-21
249.805  2.74e-21
249.873  2.66e-21
249.942  2.57e-21
250.011  2.49e-21
250.079  2.40e-21
250.148  2.35e-21
250.217  2.28e-21
250.286  2.22e-21
250.354  2.15e-21
250.423  2.10e-21
250.492  2.06e-21
250.560  1.99e-21
250.629  1.94e-21
250.698  1.87e-21
250.767  1.82e-21
250.835  1.76e-21
250.904  1.72e-21
250.973  1.67e-21
251.041  1.61e-21
251.110  1.59e-21
251.179  1.53e-21
251.247  1.49e-21
251.316  1.44e-21
251.385  1.42e-21
251.454  1.38e-21
251.522  1.32e-21
251.591  1.32e-21
251.660  1.28e-21
251.728  1.25e-21
251.797  1.20e-21
251.866  1.19e-21
251.934  1.15e-21
252.003  1.11e-21
252.072  1.09e-21
252.141  1.07e-21
252.209  1.04e-21
252.278  1.02e-21
252.347  9.90e-22
252.415  9.65e-22
252.484  9.35e-22
252.553  9.18e-22
252.621  8.92e-22
252.690  8.83e-22
252.759  8.63e-22
252.828  8.50e-22
252.896  8.34e-22
252.965  8.16e-22
253.034  8.01e-22
253.102  7.78e-22
253.171  7.72e-22
253.240  7.58e-22
253.308  7.42e-22
253.377  7.22e-22
253.446  7.04e-22
253.515  7.01e-22
253.583  6.92e-22
253.652  6.81e-22
253.721  6.48e-22
253.789  6.48e-22
253.858  6.37e-22
253.927  6.25e-22
253.995  6.10e-22
254.064  6.14e-22
254.133  6.10e-22
254.202  6.16e-22
254.270  6.00e-22
254.339  5.96e-22
254.408  5.88e-22
254.476  5.95e-22
254.545  5.88e-22
254.614  5.67e-22
254.683  5.56e-22
254.751  5.58e-22
254.820  5.54e-22
254.889  5.55e-22
254.957  5.35e-22
255.026  5.25e-22
255.095  5.43e-22
255.163  5.38e-22
255.232  5.47e-22
255.301  5.30e-22
255.370  5.37e-22
255.438  5.27e-22
255.507  5.33e-22
255.576  5.35e-22
255.644  5.28e-22
255.713  5.29e-22
255.782  5.28e-22
255.850  5.30e-22
255.919  5.39e-22
255.988  5.34e-22
256.057  5.39e-22
256.125  5.37e-22
256.194  5.45e-22
256.263  5.37e-22
256.331  5.38e-22
256.400  5.50e-22
256.469  5.39e-22
256.537  5.45e-22
256.606  5.38e-22
256.675  5.41e-22
256.744  5.51e-22
256.812  5.51e-22
256.881  5.48e-22
256.950  5.49e-22
257.018  5.65e-22
257.087  5.60e-22
257.156  5.54e-22
257.224  5.53e-22
257.293  5.71e-22
257.362  5.89e-22
257.431  5.83e-22
257.499  5.89e-22
257.568  5.90e-22
257.637  6.09e-22
257.705  6.13e-22
257.774  6.16e-22
257.843  6.15e-22
257.911  6.23e-22
257.980  6.25e-22
258.049  6.38e-22
258.118  6.38e-22
258.186  6.37e-22
258.255  6.32e-22
258.324  6.57e-22
258.392  6.52e-22
258.461  6.60e-22
258.530  6.82e-22
258.599  6.62e-22
258.667  6.94e-22
258.736  6.84e-22
258.805  7.05e-22
258.873  7.17e-22
258.942  7.21e-22
259.011  7.19e-22
259.079  7.56e-22
259.148  7.59e-22
259.217  7.53e-22
259.286  7.71e-22
259.354  7.68e-22
259.423  7.83e-22
259.492  7.97e-22
259.560  7.91e-22
259.629  8.07e-22
259.698  8.11e-22
259.766  8.24e-22
259.835  8.47e-22
259.904  8.36e-22
259.973  8.63e-22
260.041  8.68e-22
260.110  8.75e-22
260.179  8.85e-22
260.247  9.09e-22
260.316  9.02e-22
260.385  9.11e-22
260.453  9.22e-22
260.522  9.41e-22
260.591  9.40e-22
260.660  9.57e-22
260.728  9.78e-22
260.797  9.78e-22
260.866  9.98e-22
260.934  1.00e-21
261.003  1.03e-21
261.072  1.03e-21
261.140  1.04e-21
261.209  1.04e-21
261.278  1.07e-21
261.347  1.07e-21
261.415  1.08e-21
261.484  1.10e-21
261.553  1.12e-21
261.621  1.13e-21
261.690  1.14e-21
261.759  1.15e-21
261.827  1.17e-21
261.896  1.19e-21
261.965  1.19e-21
262.034  1.21e-21
262.102  1.24e-21
262.171  1.24e-21
262.240  1.25e-21
262.308  1.26e-21
262.377  1.28e-21
262.446  1.29e-21
262.515  1.30e-21
262.583  1.31e-21
262.652  1.32e-21
262.721  1.34e-21
262.789  1.36e-21
262.858  1.36e-21
262.927  1.39e-21
262.995  1.41e-21
263.064  1.43e-21
263.133  1.46e-21
263.202  1.48e-21
263.270  1.47e-21
263.339  1.49e-21
263.408  1.51e-21
263.476  1.53e-21
263.545  1.54e-21
263.614  1.57e-21
263.682  1.57e-21
263.751  1.60e-21
263.820  1.61e-21
263.889  1.60e-21
263.957  1.64e-21
264.026  1.64e-21
264.095  1.67e-21
264.163  1.69e-21
264.232  1.69e-21
264.301  1.70e-21
264.369  1.74e-21
264.438  1.76e-21
264.507  1.77e-21
264.576  1.80e-21
264.644  1.82e-21
264.713  1.84e-21
264.782  1.85e-21
264.850  1.87e-21
264.919  1.90e-21
264.988  1.89e-21
265.056  1.92e-21
265.125  1.93e-21
265.194  1.98e-21
265.263  1.99e-21
265.331  1.99e-21
265.400  2.03e-21
265.469  2.04e-21
265.537  2.07e-21
265.606  2.10e-21
265.675  2.12e-21
265.743  2.12e-21
265.812  2.14e-21
265.881  2.17e-21
265.950  2.21e-21
266.018  2.23e-21
266.087  2.25e-21
266.156  2.26e-21
266.224  2.27e-21
266.293  2.30e-21
266.362  2.33e-21
266.431  2.36e-21
266.499  2.37e-21
266.568  2.38e-21
266.637  2.41e-21
266.705  2.44e-21
266.774  2.45e-21
266.843  2.50e-21
266.911  2.52e-21
266.980  2.54e-21
267.049  2.56e-21
267.118  2.59e-21
267.186  2.61e-21
267.255  2.64e-21
267.324  2.66e-21
267.392  2.69e-21
267.461  2.72e-21
267.530  2.74e-21
267.598  2.75e-21
267.667  2.79e-21
267.736  2.81e-21
267.805  2.83e-21
267.873  2.86e-21
267.942  2.88e-21
268.011  2.91e-21
268.079  2.95e-21
268.148  2.96e-21
268.217  2.98e-21
268.285  3.02e-21
268.354  3.06e-21
268.423  3.10e-21
268.492  3.11e-21
268.560  3.13e-21
268.629  3.16e-21
268.698  3.19e-21
268.766  3.22e-21
268.835  3.25e-21
268.904  3.28e-21
268.972  3.32e-21
269.041  3.35e-21
269.110  3.36e-21
269.179  3.38e-21
269.247  3.44e-21
269.316  3.45e-21
269.385  3.49e-21
269.453  3.49e-21
269.522  3.53e-21
269.591  3.57e-21
269.660  3.58e-21
269.728  3.63e-21
269.797  3.65e-21
269.866  3.68e-21
269.934  3.71e-21
270.003  3.74e-21
270.072  3.76e-21
270.140  3.79e-21
270.209  3.83e-21
270.278  3.87e-21
270.347  3.90e-21
270.415  3.93e-21
270.484  3.95e-21
270.553  3.98e-21
270.621  4.03e-21
270.690  4.06e-21
270.759  4.09e-21
270.827  4.12e-21
270.896  4.15e-21
270.965  4.18e-21
271.034  4.21e-21
271.102  4.24e-21
271.171  4.27e-21
271.240  4.29e-21
271.308  4.34e-21
271.377  4.39e-21
271.446  4.40e-21
271.514  4.42e-21
271.583  4.48e-21
271.652  4.51e-21
271.721  4.54e-21
271.789  4.58e-21
271.858  4.61e-21
271.927  4.65e-21
271.995  4.68e-21
272.064  4.74e-21
272.133  4.75e-21
272.201  4.77e-21
272.270  4.81e-21
272.339  4.84e-21
272.408  4.88e-21
272.476  4.90e-21
272.545  4.95e-21
272.614  5.00e-21
272.682  5.03e-21
272.751  5.06e-21
272.820  5.11e-21
272.888  5.13e-21
272.957  5.17e-21
273.026  5.20e-21
273.095  5.25e-21
273.163  5.29e-21
273.232  5.33e-21
273.301  5.37e-21
273.369  5.41e-21
273.438  5.45e-21
273.507  5.48e-21
273.576  5.54e-21
273.644  5.58e-21
273.713  5.61e-21
273.782  5.66e-21
273.850  5.69e-21
273.919  5.75e-21
273.988  5.78e-21
274.056  5.81e-21
274.125  5.86e-21
274.194  5.89e-21
274.263  5.92e-21
274.331  5.98e-21
274.400  6.03e-21
274.469  6.05e-21
274.537  6.12e-21
274.606  6.16e-21
274.675  6.18e-21
274.743  6.24e-21
274.812  6.27e-21
274.881  6.33e-21
274.950  6.36e-21
275.018  6.41e-21
275.087  6.46e-21
275.156  6.52e-21
275.224  6.55e-21
275.293  6.60e-21
275.362  6.64e-21
275.430  6.68e-21
275.499  6.73e-21
275.568  6.78e-21
275.637  6.82e-21
275.705  6.87e-21
275.774  6.91e-21
275.843  6.96e-21
275.911  7.00e-21
275.980  7.05e-21
276.049  7.10e-21
276.117  7.14e-21
276.186  7.19e-21
276.255  7.24e-21
276.324  7.29e-21
276.392  7.33e-21
276.461  7.38e-21
276.530  7.43e-21
276.598  7.49e-21
276.667  7.52e-21
276.736  7.58e-21
276.805  7.62e-21
276.873  7.67e-21
276.942  7.71e-21
277.011  7.77e-21
277.079  7.82e-21
277.148  7.87e-21
277.217  7.93e-21
277.285  7.97e-21
277.354  8.01e-21
277.423  8.06e-21
277.492  8.10e-21
277.560  8.15e-21
277.629  8.20e-21
277.698  8.26e-21
277.766  8.31e-21
277.835  8.36e-21
277.904  8.40e-21
277.972  8.46e-21
278.041  8.51e-21
278.110  8.54e-21
278.179  8.60e-21
278.247  8.64e-21
278.316  8.69e-21
278.385  8.74e-21
278.453  8.80e-21
278.522  8.84e-21
278.591  8.91e-21
278.659  8.96e-21
278.728  8.99e-21
278.797  9.06e-21
278.866  9.11e-21
278.934  9.15e-21
279.003  9.21e-21
279.072  9.25e-21
279.140  9.30e-21
279.209  9.35e-21
279.278  9.40e-21
279.346  9.46e-21
279.415  9.51e-21
279.484  9.57e-21
279.553  9.61e-21
279.621  9.67e-21
279.690  9.72e-21
279.759  9.77e-21
279.827  9.84e-21
279.896  9.88e-21
279.965  9.93e-21
280.033  9.98e-21
280.102  1.00e-20
280.171  1.01e-20
280.240  1.01e-20
280.308  1.02e-20
280.377  1.03e-20
280.446  1.03e-20
280.514  1.04e-20
280.583  1.04e-20
280.652  1.05e-20
280.720  1.05e-20
280.789  1.06e-20
280.858  1.06e-20
280.927  1.07e-20
280.995  1.08e-20
281.064  1.08e-20
281.133  1.09e-20
281.201  1.09e-20
281.270  1.10e-20
281.339  1.10e-20
281.408  1.11e-20
281.476  1.12e-20
281.545  1.12e-20
281.614  1.13e-20
281.682  1.13e-20
281.751  1.14e-20
281.820  1.15e-20
281.888  1.15e-20
281.957  1.16e-20
282.026  1.17e-20
282.095  1.17e-20
282.163  1.18e-20
282.232  1.18e-20
282.301  1.19e-20
282.369  1.20e-20
282.438  1.20e-20
282.507  1.21e-20
282.575  1.22e-20
282.644  1.22e-20
282.713  1.23e-20
282.782  1.24e-20
282.850  1.24e-20
282.919  1.25e-20
282.988  1.25e-20
283.056  1.26e-20
283.125  1.27e-20
283.194  1.28e-20
283.262  1.28e-20
283.331  1.29e-20
283.400  1.30e-20
283.469  1.30e-20
283.537  1.31e-20
283.606  1.32e-20
283.675  1.32e-20
283.743  1.33e-20
283.812  1.34e-20
283.881  1.34e-20
283.949  1.35e-20
284.018  1.36e-20
284.087  1.37e-20
284.156  1.37e-20
284.224  1.38e-20
284.293  1.39e-20
284.362  1.39e-20
284.430  1.40e-20
284.499  1.41e-20
284.568  1.42e-20
284.637  1.42e-20
284.705  1.43e-20
284.774  1.44e-20
284.843  1.44e-20
284.911  1.45e-20
284.980  1.46e-20
285.049  1.47e-20
285.117  1.47e-20
285.186  1.48e-20
285.255  1.49e-20
285.324  1.50e-20
285.392  1.50e-20
285.461  1.51e-20
285.530  1.52e-20
285.598  1.53e-20
285.667  1.53e-20
285.736  1.54e-20
285.804  1.55e-20
285.873  1.55e-20
285.942  1.56e-20
286.011  1.57e-20
286.079  1.57e-20
286.148  1.58e-20
286.217  1.59e-20
286.285  1.60e-20
286.354  1.60e-20
286.423  1.61e-20
286.491  1.62e-20
286.560  1.62e-20
286.629  1.63e-20
286.698  1.64e-20
286.766  1.64e-20
286.835  1.65e-20
286.904  1.66e-20
286.972  1.67e-20
287.041  1.68e-20
287.110  1.68e-20
287.178  1.69e-20
287.247  1.70e-20
287.316  1.70e-20
287.385  1.71e-20
287.453  1.72e-20
287.522  1.73e-20
287.591  1.73e-20
287.659  1.74e-20
287.728  1.75e-20
287.797  1.75e-20
287.865  1.76e-20
287.934  1.77e-20
288.003  1.77e-20
288.072  1.78e-20
288.140  1.79e-20
288.209  1.80e-20
288.278  1.80e-20
288.346  1.81e-20
288.415  1.82e-20
288.484  1.83e-20
288.552  1.83e-20
288.621  1.84e-20
288.690  1.85e-20
288.759  1.86e-20
288.827  1.86e-20
288.896  1.87e-20
288.965  1.88e-20
289.033  1.88e-20
289.102  1.89e-20
289.171  1.90e-20
289.240  1.91e-20
289.308  1.91e-20
289.377  1.92e-20
289.446  1.93e-20
289.514  1.94e-20
289.583  1.94e-20
289.652  1.95e-20
289.720  1.96e-20
289.789  1.97e-20
289.858  1.97e-20
289.927  1.98e-20
289.995  1.99e-20
290.000  1.99e-20
290.064  2.00e-20
290.133  2.00e-20
290.201  2.01e-20
290.270  2.02e-20
290.339  2.02e-20
290.407  2.03e-20
290.476  2.04e-20
290.545  2.04e-20
290.614  2.05e-20
290.682  2.06e-20
290.751  2.06e-20
290.820  2.07e-20
290.888  2.08e-20
290.957  2.08e-20
291.000  2.09e-20
291.026  2.09e-20
291.094  2.10e-20
291.163  2.11e-20
291.232  2.11e-20
291.301  2.12e-20
291.369  2.13e-20
291.438  2.14e-20
291.507  2.14e-20
291.575  2.15e-20
291.644  2.16e-20
291.713  2.17e-20
291.781  2.17e-20
291.850  2.18e-20
291.919  2.19e-20
291.988  2.20e-20
292.000  2.20e-20
292.056  2.21e-20
292.125  2.22e-20
292.194  2.22e-20
292.262  2.23e-20
292.331  2.24e-20
292.400  2.25e-20
292.469  2.26e-20
292.537  2.27e-20
292.606  2.28e-20
292.675  2.29e-20
292.743  2.29e-20
292.812  2.30e-20
292.881  2.31e-20
292.949  2.32e-20
293.000  2.33e-20
293.018  2.33e-20
293.087  2.34e-20
293.156  2.35e-20
293.224  2.35e-20
293.293  2.36e-20
293.362  2.37e-20
293.430  2.38e-20
293.499  2.39e-20
293.568  2.39e-20
293.636  2.40e-20
293.705  2.41e-20
293.774  2.42e-20
293.843  2.43e-20
293.911  2.44e-20
293.980  2.45e-20
294.000  2.45e-20
294.049  2.46e-20
294.117  2.47e-20
294.186  2.48e-20
294.255  2.49e-20
294.323  2.50e-20
294.392  2.52e-20
294.461  2.53e-20
294.530  2.54e-20
294.598  2.55e-20
294.667  2.56e-20
294.736  2.57e-20
294.804  2.58e-20
294.873  2.59e-20
294.942  2.60e-20
295.000  2.61e-20
295.010  2.61e-20
295.079  2.62e-20
295.148  2.63e-20
295.217  2.64e-20
295.285  2.64e-20
295.354  2.65e-20
295.423  2.66e-20
295.491  2.66e-20
295.560  2.67e-20
295.629  2.68e-20
295.697  2.68e-20
295.766  2.69e-20
295.835  2.70e-20
295.904  2.70e-20
295.972  2.71e-20
296.000  2.71e-20
296.041  2.72e-20
296.110  2.73e-20
296.178  2.73e-20
296.247  2.74e-20
296.316  2.75e-20
296.385  2.76e-20
296.453  2.77e-20
296.522  2.78e-20
296.591  2.79e-20
296.659  2.80e-20
296.728  2.80e-20
296.797  2.81e-20
296.865  2.82e-20
296.934  2.83e-20
297.000  2.84e-20
297.003  2.84e-20
297.072  2.85e-20
297.140  2.86e-20
297.209  2.87e-20
297.278  2.87e-20
297.346  2.88e-20
297.415  2.89e-20
297.484  2.90e-20
297.552  2.91e-20
297.621  2.91e-20
297.690  2.92e-20
297.759  2.93e-20
297.827  2.94e-20
297.896  2.95e-20
297.965  2.95e-20
298.000  2.96e-20
298.033  2.96e-20
298.102  2.97e-20
298.171  2.98e-20
298.239  2.99e-20
298.308  3.00e-20
298.377  3.00e-20
298.446  3.01e-20
298.514  3.02e-20
298.583  3.03e-20
298.652  3.04e-20
298.720  3.05e-20
298.789  3.06e-20
298.858  3.06e-20
298.926  3.07e-20
298.995  3.08e-20
299.000  3.08e-20
299.064  3.09e-20
299.133  3.10e-20
299.201  3.11e-20
299.270  3.12e-20
299.339  3.13e-20
299.407  3.13e-20
299.476  3.14e-20
299.545  3.15e-20
299.613  3.16e-20
299.682  3.16e-20
299.751  3.17e-20
299.820  3.18e-20
299.888  3.19e-20
299.957  3.20e-20
300.000  3.22e-20
300.019  3.23e-20
300.087  3.24e-20
300.156  3.25e-20
300.224  3.26e-20
300.293  3.27e-20
300.362  3.28e-20
300.430  3.29e-20
300.499  3.30e-20
300.567  3.30e-20
300.636  3.31e-20
300.704  3.32e-20
300.773  3.33e-20
300.842  3.34e-20
300.910  3.35e-20
300.979  3.36e-20
301.000  3.36e-20
301.047  3.37e-20
301.116  3.38e-20
301.184  3.39e-20
301.253  3.39e-20
301.322  3.40e-20
301.390  3.41e-20
301.459  3.42e-20
301.527  3.43e-20
301.596  3.43e-20
301.664  3.44e-20
301.733  3.45e-20
301.802  3.46e-20
301.870  3.47e-20
301.939  3.48e-20
302.000  3.49e-20
302.007  3.49e-20
302.076  3.50e-20
302.144  3.51e-20
302.213  3.52e-20
302.281  3.53e-20
302.350  3.54e-20
302.419  3.55e-20
302.487  3.56e-20
302.556  3.57e-20
302.624  3.58e-20
302.693  3.59e-20
302.761  3.61e-20
302.830  3.62e-20
302.899  3.63e-20
302.967  3.64e-20
303.000  3.65e-20
303.036  3.65e-20
303.104  3.66e-20
303.173  3.67e-20
303.241  3.68e-20
303.310  3.69e-20
303.379  3.70e-20
303.447  3.71e-20
303.516  3.72e-20
303.584  3.73e-20
303.653  3.74e-20
303.721  3.75e-20
303.790  3.76e-20
303.859  3.77e-20
303.927  3.78e-20
303.996  3.79e-20
304.000  3.79e-20
304.064  3.80e-20
304.133  3.81e-20
304.201  3.83e-20
304.270  3.83e-20
304.339  3.85e-20
304.407  3.86e-20
304.476  3.87e-20
304.544  3.87e-20
304.613  3.89e-20
304.681  3.89e-20
304.750  3.90e-20
304.818  3.91e-20
304.887  3.92e-20
304.956  3.93e-20
305.000  3.94e-20
305.024  3.94e-20
305.093  3.95e-20
305.161  3.96e-20
305.230  3.97e-20
305.298  3.98e-20
305.367  3.99e-20
305.436  4.00e-20
305.504  4.00e-20
305.573  4.01e-20
305.641  4.02e-20
305.710  4.03e-20
305.778  4.04e-20
305.847  4.05e-20
305.916  4.06e-20
305.984  4.07e-20
306.000  4.07e-20
306.053  4.08e-20
306.121  4.09e-20
306.190  4.10e-20
306.258  4.11e-20
306.327  4.12e-20
306.396  4.13e-20
306.464  4.13e-20
306.533  4.14e-20
306.601  4.15e-20
306.670  4.16e-20
306.738  4.17e-20
306.807  4.18e-20
306.875  4.19e-20
306.944  4.20e-20
307.000  4.21e-20
307.013  4.21e-20
307.081  4.22e-20
307.150  4.23e-20
307.218  4.24e-20
307.287  4.25e-20
307.355  4.26e-20
307.424  4.26e-20
307.493  4.27e-20
307.561  4.28e-20
307.630  4.29e-20
307.698  4.30e-20
307.767  4.31e-20
307.835  4.31e-20
307.904  4.32e-20
307.973  4.33e-20
308.000  4.33e-20
308.041  4.33e-20
308.110  4.34e-20
308.178  4.35e-20
308.247  4.35e-20
308.315  4.36e-20
308.384  4.37e-20
308.453  4.37e-20
308.521  4.38e-20
308.590  4.39e-20
308.658  4.39e-20
308.727  4.40e-20
308.795  4.40e-20
308.864  4.41e-20
308.932  4.41e-20
309.000  4.42e-20
309.001  4.42e-20
309.070  4.43e-20
309.138  4.43e-20
309.207  4.44e-20
309.275  4.45e-20
309.344  4.46e-20
309.412  4.46e-20
309.481  4.47e-20
309.550  4.48e-20
309.618  4.49e-20
309.687  4.50e-20
309.755  4.50e-20
309.824  4.51e-20
309.892  4.52e-20
309.961  4.53e-20
310.000  4.53e-20
310.030  4.54e-20
310.098  4.54e-20
310.167  4.55e-20
310.235  4.56e-20
310.304  4.57e-20
310.372  4.58e-20
310.441  4.59e-20
310.510  4.59e-20
310.578  4.60e-20
310.647  4.61e-20
310.715  4.62e-20
310.784  4.62e-20
310.852  4.63e-20
310.921  4.64e-20
310.990  4.65e-20
311.000  4.65e-20
311.058  4.66e-20
311.127  4.66e-20
311.195  4.67e-20
311.264  4.68e-20
311.332  4.69e-20
311.401  4.70e-20
311.469  4.71e-20
311.538  4.72e-20
311.607  4.73e-20
311.675  4.73e-20
311.744  4.74e-20
311.812  4.75e-20
311.881  4.76e-20
311.949  4.77e-20
312.000  4.77e-20
312.018  4.78e-20
312.087  4.78e-20
312.155  4.79e-20
312.224  4.80e-20
312.292  4.81e-20
312.361  4.81e-20
312.429  4.82e-20
312.498  4.83e-20
312.567  4.84e-20
312.635  4.85e-20
312.704  4.86e-20
312.772  4.86e-20
312.841  4.87e-20
312.909  4.88e-20
312.978  4.89e-20
313.000  4.89e-20
313.047  4.89e-20
313.115  4.90e-20
313.184  4.91e-20
313.252  4.92e-20
313.321  4.93e-20
313.389  4.94e-20
313.458  4.94e-20
313.526  4.95e-20
313.595  4.96e-20
313.664  4.98e-20
313.732  4.99e-20
313.801  5.00e-20
313.869  5.00e-20
313.938  5.01e-20
314.000  5.02e-20
314.006  5.02e-20
314.075  5.03e-20
314.144  5.04e-20
314.212  5.05e-20
314.281  5.05e-20
314.349  5.06e-20
314.418  5.07e-20
314.486  5.08e-20
314.555  5.09e-20
314.624  5.09e-20
314.692  5.10e-20
314.761  5.11e-20
314.829  5.12e-20
314.898  5.12e-20
314.966  5.13e-20
315.000  5.13e-20
315.035  5.14e-20
315.104  5.15e-20
315.172  5.15e-20
315.241  5.16e-20
315.309  5.17e-20
315.378  5.17e-20
315.446  5.18e-20
315.515  5.19e-20
315.583  5.20e-20
315.652  5.21e-20
315.721  5.21e-20
315.789  5.22e-20
315.858  5.23e-20
315.926  5.24e-20
315.995  5.24e-20
316.000  5.25e-20
316.055  5.25e-20
316.124  5.25e-20
316.192  5.26e-20
316.260  5.26e-20
316.329  5.27e-20
316.397  5.28e-20
316.465  5.29e-20
316.533  5.31e-20
316.602  5.32e-20
316.670  5.33e-20
316.738  5.34e-20
316.807  5.35e-20
316.875  5.36e-20
316.943  5.36e-20
317.000  5.36e-20
317.012  5.37e-20
317.080  5.36e-20
317.148  5.37e-20
317.216  5.37e-20
317.285  5.37e-20
317.353  5.37e-20
317.421  5.37e-20
317.490  5.38e-20
317.558  5.39e-20
317.626  5.40e-20
317.694  5.40e-20
317.763  5.42e-20
317.831  5.42e-20
317.899  5.43e-20
317.968  5.44e-20
318.000  5.44e-20
318.036  5.44e-20
318.104  5.44e-20
318.172  5.45e-20
318.241  5.45e-20
318.309  5.45e-20
318.377  5.46e-20
318.446  5.46e-20
318.514  5.46e-20
318.582  5.46e-20
318.650  5.47e-20
318.719  5.48e-20
318.787  5.49e-20
318.855  5.49e-20
318.924  5.50e-20
318.992  5.51e-20
319.000  5.51e-20
319.060  5.51e-20
319.128  5.52e-20
319.197  5.52e-20
319.265  5.52e-20
319.333  5.52e-20
319.402  5.52e-20
319.470  5.52e-20
319.538  5.52e-20
319.607  5.52e-20
319.675  5.52e-20
319.743  5.52e-20
319.811  5.53e-20
319.880  5.53e-20
319.948  5.53e-20
320.000  5.54e-20
320.016  5.54e-20
320.085  5.55e-20
320.153  5.55e-20
320.221  5.56e-20
320.289  5.56e-20
320.358  5.56e-20
320.426  5.56e-20
320.494  5.56e-20
320.563  5.57e-20
320.631  5.57e-20
320.699  5.56e-20
320.767  5.56e-20
320.836  5.57e-20
320.904  5.57e-20
320.972  5.57e-20
321.000  5.57e-20
321.041  5.57e-20
321.109  5.58e-20
321.177  5.58e-20
321.245  5.58e-20
321.314  5.59e-20
321.382  5.59e-20
321.450  5.59e-20
321.519  5.60e-20
321.587  5.60e-20
321.655  5.60e-20
321.724  5.60e-20
321.792  5.60e-20
321.860  5.60e-20
321.928  5.60e-20
321.997  5.60e-20
322.000  5.60e-20
322.065  5.60e-20
322.133  5.61e-20
322.202  5.61e-20
322.270  5.61e-20
322.338  5.61e-20
322.406  5.62e-20
322.475  5.63e-20
322.543  5.63e-20
322.611  5.64e-20
322.680  5.64e-20
322.748  5.65e-20
322.816  5.65e-20
322.884  5.65e-20
322.953  5.66e-20
323.000  5.66e-20
323.021  5.66e-20
323.089  5.66e-20
323.158  5.67e-20
323.226  5.67e-20
323.294  5.68e-20
323.362  5.68e-20
323.431  5.68e-20
323.499  5.69e-20
323.567  5.70e-20
323.636  5.70e-20
323.704  5.71e-20
323.772  5.71e-20
323.841  5.72e-20
323.909  5.73e-20
323.977  5.73e-20
324.000  5.73e-20
324.045  5.73e-20
324.114  5.74e-20
324.182  5.74e-20
324.250  5.75e-20
324.319  5.75e-20
324.387  5.76e-20
324.455  5.76e-20
324.523  5.77e-20
324.592  5.78e-20
324.660  5.79e-20
324.728  5.79e-20
324.797  5.80e-20
324.865  5.81e-20
324.933  5.81e-20
325.000  5.82e-20
325.001  5.82e-20
325.070  5.83e-20
325.138  5.84e-20
325.206  5.84e-20
325.275  5.85e-20
325.343  5.85e-20
325.411  5.85e-20
325.479  5.85e-20
325.548  5.86e-20
325.616  5.86e-20
325.684  5.86e-20
325.753  5.87e-20
325.821  5.87e-20
325.889  5.88e-20
325.957  5.88e-20
326.000  5.89e-20
326.026  5.89e-20
326.094  5.89e-20
326.162  5.90e-20
326.231  5.91e-20
326.299  5.91e-20
326.367  5.92e-20
326.436  5.92e-20
326.504  5.93e-20
326.572  5.93e-20
326.640  5.93e-20
326.709  5.93e-20
326.777  5.93e-20
326.845  5.93e-20
326.914  5.93e-20
326.982  5.94e-20
327.000  5.94e-20
327.050  5.94e-20
327.118  5.95e-20
327.187  5.95e-20
327.255  5.96e-20
327.323  5.97e-20
327.392  5.97e-20
327.460  5.98e-20
327.528  5.98e-20
327.596  5.99e-20
327.665  5.99e-20
327.733  5.99e-20
327.801  6.00e-20
327.870  6.00e-20
327.938  6.00e-20
328.000  6.00e-20
328.006  6.00e-20
328.074  6.00e-20
328.143  6.01e-20
328.211  6.01e-20
328.279  6.01e-20
328.348  6.02e-20
328.416  6.03e-20
328.484  6.03e-20
328.553  6.03e-20
328.621  6.04e-20
328.689  6.04e-20
328.757  6.04e-20
328.826  6.03e-20
328.894  6.03e-20
328.962  6.03e-20
329.000  6.03e-20
329.031  6.03e-20
329.099  6.02e-20
329.167  6.02e-20
329.235  6.02e-20
329.304  6.01e-20
329.372  6.01e-20
329.440  6.01e-20
329.509  6.00e-20
329.577  6.00e-20
329.645  5.99e-20
329.713  5.99e-20
329.782  5.99e-20
329.850  5.99e-20
329.918  5.99e-20
329.987  5.99e-20
330.000  5.99e-20
330.055  5.99e-20
330.123  5.98e-20
330.191  5.98e-20
330.260  5.98e-20
330.328  5.97e-20
330.396  5.97e-20
330.465  5.96e-20
330.533  5.96e-20
330.601  5.96e-20
330.669  5.95e-20
330.738  5.95e-20
330.806  5.95e-20
330.874  5.95e-20
330.943  5.95e-20
331.000  5.95e-20
331.011  5.95e-20
331.079  5.95e-20
331.148  5.94e-20
331.216  5.94e-20
331.284  5.93e-20
331.352  5.92e-20
331.421  5.92e-20
331.489  5.91e-20
331.557  5.89e-20
331.626  5.89e-20
331.694  5.88e-20
331.762  5.87e-20
331.830  5.86e-20
331.899  5.85e-20
331.967  5.85e-20
332.000  5.84e-20
332.035  5.84e-20
332.104  5.84e-20
332.172  5.83e-20
332.240  5.83e-20
332.308  5.82e-20
332.377  5.82e-20
332.445  5.81e-20
332.513  5.80e-20
332.582  5.80e-20
332.650  5.79e-20
332.718  5.78e-20
332.786  5.77e-20
332.855  5.76e-20
332.923  5.76e-20
332.991  5.75e-20
333.000  5.75e-20
333.060  5.74e-20
333.128  5.74e-20
333.196  5.73e-20
333.265  5.73e-20
333.333  5.73e-20
333.401  5.72e-20
333.469  5.72e-20
333.538  5.72e-20
333.606  5.71e-20
333.674  5.70e-20
333.743  5.70e-20
333.811  5.69e-20
333.879  5.68e-20
333.947  5.67e-20
334.000  5.67e-20
334.016  5.67e-20
334.084  5.66e-20
334.152  5.65e-20
334.221  5.65e-20
334.289  5.64e-20
334.357  5.64e-20
334.425  5.64e-20
334.494  5.64e-20
334.562  5.63e-20
334.630  5.63e-20
334.699  5.63e-20
334.767  5.63e-20
334.835  5.63e-20
334.903  5.63e-20
334.972  5.62e-20
335.000  5.62e-20
335.040  5.62e-20
335.108  5.61e-20
335.177  5.61e-20
335.245  5.60e-20
335.313  5.60e-20
335.382  5.59e-20
335.450  5.59e-20
335.518  5.58e-20
335.586  5.58e-20
335.655  5.58e-20
335.723  5.57e-20
335.791  5.57e-20
335.860  5.57e-20
335.928  5.57e-20
335.996  5.57e-20
336.000  5.57e-20
336.064  5.57e-20
336.133  5.56e-20
336.201  5.56e-20
336.269  5.56e-20
336.338  5.56e-20
336.406  5.55e-20
336.474  5.55e-20
336.542  5.54e-20
336.611  5.54e-20
336.679  5.54e-20
336.747  5.53e-20
336.816  5.53e-20
336.884  5.53e-20
336.952  5.53e-20
337.000  5.53e-20
337.020  5.53e-20
337.089  5.53e-20
337.157  5.53e-20
337.225  5.54e-20
337.294  5.54e-20
337.362  5.53e-20
337.430  5.53e-20
337.499  5.53e-20
337.567  5.53e-20
337.635  5.52e-20
337.703  5.52e-20
337.772  5.52e-20
337.840  5.51e-20
337.908  5.51e-20
337.977  5.51e-20
338.000  5.51e-20
338.045  5.51e-20
338.113  5.51e-20
338.181  5.52e-20
338.250  5.52e-20
338.318  5.52e-20
338.386  5.52e-20
338.455  5.52e-20
338.523  5.52e-20
338.591  5.52e-20
338.659  5.52e-20
338.728  5.52e-20
338.796  5.52e-20
338.864  5.52e-20
338.933  5.52e-20
339.000  5.51e-20
339.001  5.51e-20
339.069  5.51e-20
339.137  5.51e-20
339.206  5.52e-20
339.274  5.52e-20
339.342  5.52e-20
339.411  5.52e-20
339.479  5.52e-20
339.547  5.53e-20
339.615  5.53e-20
339.684  5.53e-20
339.752  5.53e-20
339.820  5.53e-20
339.889  5.53e-20
339.957  5.53e-20
340.000  5.53e-20
340.025  5.53e-20
340.094  5.53e-20
340.162  5.53e-20
340.230  5.53e-20
340.298  5.53e-20
340.367  5.52e-20
340.435  5.52e-20
340.503  5.52e-20
340.572  5.52e-20
340.640  5.51e-20
340.708  5.51e-20
340.776  5.51e-20
340.845  5.50e-20
340.913  5.50e-20
340.981  5.50e-20
341.000  5.50e-20
341.050  5.50e-20
341.118  5.50e-20
341.186  5.50e-20
341.254  5.50e-20
341.323  5.50e-20
341.391  5.49e-20
341.459  5.49e-20
341.528  5.48e-20
341.596  5.47e-20
341.664  5.47e-20
341.732  5.46e-20
341.801  5.45e-20
341.869  5.45e-20
341.937  5.44e-20
342.000  5.44e-20
342.006  5.44e-20
342.074  5.43e-20
342.142  5.43e-20
342.211  5.43e-20
342.279  5.43e-20
342.347  5.43e-20
342.415  5.43e-20
342.484  5.42e-20
342.552  5.42e-20
342.620  5.41e-20
342.689  5.39e-20
342.757  5.38e-20
342.825  5.37e-20
342.893  5.35e-20
342.962  5.34e-20
343.000  5.33e-20
343.030  5.33e-20
343.098  5.31e-20
343.167  5.31e-20
343.235  5.30e-20
343.303  5.30e-20
343.371  5.30e-20
343.440  5.30e-20
343.508  5.30e-20
343.576  5.30e-20
343.645  5.29e-20
343.713  5.28e-20
343.781  5.27e-20
343.849  5.26e-20
343.918  5.25e-20
343.986  5.24e-20
344.000  5.23e-20
344.054  5.22e-20
344.123  5.21e-20
344.191  5.20e-20
344.259  5.18e-20
344.328  5.16e-20
344.396  5.14e-20
344.464  5.12e-20
344.532  5.10e-20
344.601  5.09e-20
344.669  5.07e-20
344.737  5.05e-20
344.806  5.04e-20
344.874  5.03e-20
344.942  5.02e-20
345.000  5.01e-20
345.010  5.00e-20
345.079  4.99e-20
345.147  4.98e-20
345.215  4.96e-20
345.284  4.94e-20
345.352  4.93e-20
345.420  4.90e-20
345.488  4.88e-20
345.557  4.86e-20
345.625  4.84e-20
345.693  4.82e-20
345.762  4.80e-20
345.830  4.78e-20
345.898  4.76e-20
345.966  4.75e-20
346.000  4.74e-20
346.035  4.73e-20
346.103  4.72e-20
346.171  4.70e-20
346.240  4.69e-20
346.308  4.68e-20
346.376  4.66e-20
346.444  4.65e-20
346.513  4.63e-20
346.581  4.62e-20
346.649  4.60e-20
346.718  4.58e-20
346.786  4.56e-20
346.854  4.54e-20
346.923  4.52e-20
346.991  4.50e-20
347.000  4.50e-20
347.059  4.48e-20
347.127  4.46e-20
347.196  4.45e-20
347.264  4.43e-20
347.332  4.42e-20
347.401  4.40e-20
347.469  4.39e-20
347.537  4.38e-20
347.605  4.37e-20
347.674  4.35e-20
347.742  4.34e-20
347.810  4.33e-20
347.879  4.31e-20
347.947  4.29e-20
348.000  4.28e-20
348.015  4.28e-20
348.083  4.26e-20
348.152  4.24e-20
348.220  4.22e-20
348.288  4.20e-20
348.357  4.19e-20
348.425  4.17e-20
348.493  4.16e-20
348.561  4.14e-20
348.630  4.13e-20
348.698  4.12e-20
348.766  4.11e-20
348.835  4.10e-20
348.903  4.10e-20
348.971  4.10e-20
349.000  4.10e-20
349.040  4.09e-20
349.108  4.09e-20
349.176  4.09e-20
349.244  4.09e-20
349.313  4.08e-20
349.381  4.08e-20
349.449  4.08e-20
349.518  4.07e-20
349.586  4.07e-20
349.654  4.07e-20
349.722  4.06e-20
349.791  4.06e-20
349.859  4.06e-20
349.927  4.06e-20
349.996  4.05e-20
350.000  4.05e-20
350.064  4.05e-20
350.132  4.04e-20
350.200  4.04e-20
350.269  4.03e-20
350.337  4.03e-20
350.405  4.02e-20
350.474  4.01e-20
350.542  4.00e-20
350.610  3.99e-20
350.678  3.98e-20
350.747  3.97e-20
350.815  3.96e-20
350.883  3.95e-20
350.952  3.94e-20
351.000  3.93e-20
351.020  3.93e-20
351.088  3.92e-20
351.156  3.91e-20
351.225  3.90e-20
351.293  3.89e-20
351.361  3.88e-20
351.430  3.88e-20
351.498  3.87e-20
351.566  3.87e-20
351.635  3.86e-20
351.703  3.86e-20
351.771  3.86e-20
351.839  3.85e-20
351.908  3.85e-20
351.976  3.84e-20
352.000  3.84e-20
352.044  3.84e-20
352.113  3.84e-20
352.181  3.83e-20
352.249  3.83e-20
352.317  3.83e-20
352.386  3.82e-20
352.454  3.82e-20
352.522  3.81e-20
352.591  3.81e-20
352.659  3.81e-20
352.727  3.81e-20
352.795  3.81e-20
352.864  3.81e-20
352.932  3.81e-20
353.000  3.81e-20
353.069  3.81e-20
353.137  3.81e-20
353.205  3.81e-20
353.273  3.80e-20
353.342  3.79e-20
353.410  3.79e-20
353.478  3.78e-20
353.547  3.77e-20
353.615  3.75e-20
353.683  3.74e-20
353.752  3.73e-20
353.820  3.72e-20
353.888  3.72e-20
353.956  3.71e-20
354.000  3.71e-20
354.025  3.71e-20
354.093  3.70e-20
354.161  3.70e-20
354.230  3.70e-20
354.298  3.70e-20
354.366  3.70e-20
354.434  3.69e-20
354.503  3.69e-20
354.571  3.68e-20
354.639  3.68e-20
354.708  3.68e-20
354.776  3.67e-20
354.844  3.67e-20
354.912  3.66e-20
354.981  3.66e-20
355.000  3.66e-20
355.049  3.66e-20
355.117  3.65e-20
355.186  3.65e-20
355.254  3.64e-20
355.322  3.64e-20
355.390  3.63e-20
355.459  3.63e-20
355.527  3.62e-20
355.595  3.62e-20
355.664  3.62e-20
355.732  3.63e-20
355.800  3.63e-20
355.868  3.63e-20
355.937  3.63e-20
356.000  3.63e-20
356.005  3.63e-20
356.073  3.63e-20
356.142  3.62e-20
356.210  3.62e-20
356.278  3.62e-20
356.347  3.61e-20
356.415  3.61e-20
356.483  3.61e-20
356.551  3.61e-20
356.620  3.61e-20
356.688  3.61e-20
356.756  3.61e-20
356.825  3.60e-20
356.893  3.60e-20
356.961  3.60e-20
357.000  3.59e-20
357.029  3.59e-20
357.098  3.59e-20
357.166  3.59e-20
357.234  3.59e-20
357.303  3.59e-20
357.371  3.59e-20
357.439  3.58e-20
357.507  3.58e-20
357.576  3.58e-20
357.644  3.58e-20
357.712  3.58e-20
357.781  3.58e-20
357.849  3.57e-20
357.917  3.57e-20
357.986  3.56e-20
358.000  3.56e-20
358.054  3.56e-20
358.122  3.56e-20
358.190  3.56e-20
358.259  3.56e-20
358.327  3.57e-20
358.395  3.57e-20
358.464  3.57e-20
358.532  3.57e-20
358.600  3.58e-20
358.668  3.59e-20
358.737  3.61e-20
358.805  3.62e-20
358.873  3.63e-20
358.942  3.63e-20
359.000  3.63e-20
359.010  3.63e-20
359.078  3.62e-20
359.146  3.60e-20
359.215  3.58e-20
359.283  3.56e-20
359.351  3.53e-20
359.420  3.50e-20
359.488  3.48e-20
359.556  3.45e-20
359.624  3.43e-20
359.693  3.41e-20
359.761  3.40e-20
359.829  3.39e-20
359.898  3.38e-20
359.966  3.37e-20
360.000  3.37e-20
360.034  3.37e-20
360.102  3.37e-20
360.171  3.36e-20
360.239  3.36e-20
360.307  3.35e-20
360.376  3.34e-20
360.444  3.33e-20
360.512  3.31e-20
360.581  3.30e-20
360.649  3.28e-20
360.717  3.26e-20
360.785  3.24e-20
360.854  3.23e-20
360.922  3.21e-20
360.990  3.18e-20
361.000  3.18e-20
361.059  3.16e-20
361.127  3.14e-20
361.195  3.12e-20
361.263  3.09e-20
361.332  3.07e-20
361.400  3.05e-20
361.468  3.04e-20
361.537  3.02e-20
361.605  3.01e-20
361.673  2.99e-20
361.741  2.98e-20
361.810  2.96e-20
361.878  2.95e-20
361.946  2.93e-20
362.000  2.91e-20
362.015  2.91e-20
362.083  2.88e-20
362.151  2.86e-20
362.219  2.83e-20
362.288  2.81e-20
362.356  2.78e-20
362.424  2.75e-20
362.493  2.73e-20
362.561  2.70e-20
362.629  2.68e-20
362.698  2.66e-20
362.766  2.63e-20
362.834  2.61e-20
362.902  2.59e-20
362.971  2.57e-20
363.000  2.56e-20
363.039  2.55e-20
363.107  2.53e-20
363.176  2.51e-20
363.244  2.49e-20
363.312  2.46e-20
363.380  2.44e-20
363.449  2.42e-20
363.517  2.39e-20
363.585  2.37e-20
363.654  2.35e-20
363.722  2.32e-20
363.790  2.30e-20
363.858  2.27e-20
363.927  2.25e-20
363.995  2.23e-20
364.000  2.23e-20
364.063  2.21e-20
364.132  2.19e-20
364.200  2.18e-20
364.268  2.16e-20
364.336  2.15e-20
364.405  2.14e-20
364.473  2.13e-20
364.541  2.12e-20
364.610  2.11e-20
364.678  2.10e-20
364.746  2.09e-20
364.815  2.07e-20
364.883  2.06e-20
364.951  2.04e-20
365.000  1.99e-20
365.015  1.98e-20
365.082  1.95e-20
365.150  1.92e-20
365.217  1.88e-20
365.284  1.86e-20
365.352  1.82e-20
365.419  1.79e-20
365.486  1.76e-20
365.554  1.73e-20
365.621  1.70e-20
365.688  1.68e-20
365.756  1.65e-20
365.823  1.63e-20
365.890  1.61e-20
365.958  1.58e-20
366.000  1.57e-20
366.025  1.56e-20
366.093  1.55e-20
366.160  1.53e-20
366.227  1.52e-20
366.295  1.51e-20
366.362  1.50e-20
366.429  1.50e-20
366.497  1.49e-20
366.564  1.48e-20
366.631  1.48e-20
366.699  1.48e-20
366.766  1.48e-20
366.833  1.48e-20
366.901  1.48e-20
366.968  1.48e-20
367.000  1.48e-20
367.036  1.48e-20
367.103  1.48e-20
367.170  1.48e-20
367.238  1.49e-20
367.305  1.49e-20
367.372  1.49e-20
367.440  1.49e-20
367.507  1.49e-20
367.575  1.49e-20
367.642  1.49e-20
367.709  1.49e-20
367.777  1.49e-20
367.844  1.49e-20
367.911  1.49e-20
367.979  1.48e-20
368.000  1.48e-20
368.046  1.48e-20
368.114  1.47e-20
368.181  1.46e-20
368.248  1.46e-20
368.316  1.45e-20
368.383  1.44e-20
368.451  1.43e-20
368.518  1.42e-20
368.585  1.41e-20
368.653  1.41e-20
368.720  1.40e-20
368.788  1.39e-20
368.855  1.38e-20
368.922  1.37e-20
368.990  1.36e-20
369.000  1.36e-20
369.057  1.35e-20
369.125  1.35e-20
369.192  1.34e-20
369.259  1.33e-20
369.327  1.32e-20
369.394  1.32e-20
369.462  1.31e-20
369.529  1.31e-20
369.596  1.30e-20
369.664  1.30e-20
369.731  1.30e-20
369.799  1.29e-20
369.866  1.29e-20
369.933  1.29e-20
370.000  1.29e-20
370.001  1.29e-20
370.068  1.30e-20
370.136  1.32e-20
370.203  1.34e-20
370.270  1.36e-20
370.338  1.37e-20
370.405  1.38e-20
370.473  1.39e-20
370.540  1.41e-20
370.608  1.43e-20
370.675  1.45e-20
370.742  1.47e-20
370.810  1.48e-20
370.877  1.50e-20
370.945  1.50e-20
371.012  1.51e-20
371.080  1.50e-20
371.147  1.50e-20
371.214  1.48e-20
371.282  1.47e-20
371.349  1.45e-20
371.417  1.44e-20
371.484  1.42e-20
371.552  1.41e-20
371.619  1.39e-20
371.687  1.37e-20
371.754  1.35e-20
371.821  1.34e-20
371.889  1.32e-20
371.956  1.31e-20
372.024  1.30e-20
372.091  1.30e-20
372.159  1.29e-20
372.226  1.28e-20
372.294  1.27e-20
372.361  1.26e-20
372.428  1.24e-20
372.496  1.23e-20
372.563  1.21e-20
372.631  1.20e-20
372.698  1.18e-20
372.766  1.17e-20
372.833  1.16e-20
372.901  1.15e-20
372.968  1.14e-20
373.036  1.14e-20
373.103  1.14e-20
373.171  1.14e-20
373.238  1.14e-20
373.305  1.15e-20
373.373  1.15e-20
373.440  1.15e-20
373.508  1.15e-20
373.575  1.15e-20
373.643  1.15e-20
373.710  1.16e-20
373.778  1.17e-20
373.845  1.19e-20
373.913  1.20e-20
373.980  1.22e-20
374.048  1.24e-20
374.115  1.25e-20
374.183  1.26e-20
374.250  1.25e-20
374.318  1.25e-20
374.385  1.24e-20
374.453  1.23e-20
374.520  1.23e-20
374.587  1.22e-20
374.655  1.22e-20
374.722  1.23e-20
374.790  1.23e-20
374.857  1.24e-20
374.925  1.24e-20
374.992  1.22e-20
375.060  1.21e-20
375.127  1.19e-20
375.195  1.17e-20
375.262  1.15e-20
375.330  1.13e-20
375.397  1.11e-20
375.465  1.10e-20
375.532  1.09e-20
375.600  1.08e-20
375.667  1.07e-20
375.735  1.06e-20
375.802  1.05e-20
375.870  1.04e-20
375.937  1.04e-20
376.005  1.03e-20
376.072  1.03e-20
376.140  1.02e-20
376.207  1.03e-20
376.275  1.04e-20
376.342  1.05e-20
376.410  1.08e-20
376.478  1.10e-20
376.545  1.13e-20
376.613  1.15e-20
376.680  1.18e-20
376.748  1.21e-20
376.815  1.23e-20
376.883  1.25e-20
376.950  1.28e-20
377.018  1.31e-20
377.085  1.34e-20
377.153  1.37e-20
377.220  1.41e-20
377.288  1.45e-20
377.355  1.48e-20
377.423  1.50e-20
377.490  1.50e-20
377.558  1.48e-20
377.625  1.46e-20
377.693  1.42e-20
377.761  1.38e-20
377.828  1.33e-20
377.896  1.28e-20
377.963  1.23e-20
378.031  1.18e-20
378.098  1.13e-20
378.166  1.10e-20
378.233  1.06e-20
378.301  1.03e-20
378.368  1.01e-20
378.436  9.84e-21
378.503  9.67e-21
378.571  9.50e-21
378.639  9.36e-21
378.706  9.22e-21
378.774  9.09e-21
378.841  8.96e-21
378.909  8.85e-21
378.976  8.68e-21
379.044  8.53e-21
379.111  8.40e-21
379.179  8.23e-21
379.247  8.11e-21
379.314  7.95e-21
379.382  7.80e-21
379.449  7.69e-21
379.517  7.57e-21
379.584  7.47e-21
379.652  7.36e-21
379.720  7.28e-21
379.787  7.16e-21
379.855  7.05e-21
379.922  6.94e-21
379.990  6.82e-21
380.057  6.72e-21
380.125  6.65e-21
380.193  6.55e-21
380.260  6.49e-21
380.328  6.44e-21
380.395  6.39e-21
380.463  6.32e-21
380.530  6.20e-21
380.598  6.11e-21
380.666  5.96e-21
380.733  5.81e-21
380.801  5.64e-21
380.868  5.47e-21
380.936  5.28e-21
381.004  5.13e-21
381.071  4.94e-21
381.139  4.77e-21
381.206  4.61e-21
381.274  4.46e-21
381.341  4.34e-21
381.409  4.21e-21
381.477  4.13e-21
381.544  4.05e-21
381.612  3.96e-21
381.679  3.88e-21
381.747  3.80e-21
381.815  3.73e-21
381.882  3.64e-21
381.950  3.58e-21
382.017  3.51e-21
382.085  3.45e-21
382.153  3.36e-21
382.220  3.31e-21
382.288  3.24e-21
382.355  3.16e-21
382.423  3.09e-21
382.491  3.03e-21
382.558  2.96e-21
382.626  2.89e-21
382.694  2.82e-21
382.761  2.75e-21
382.829  2.68e-21
382.896  2.60e-21
382.964  2.54e-21
383.032  2.51e-21
383.099  2.45e-21
383.167  2.42e-21
383.234  2.37e-21
383.302  2.31e-21
383.370  2.29e-21
383.437  2.20e-21
383.505  2.20e-21
383.573  2.18e-21
383.640  2.13e-21
383.708  2.09e-21
383.775  2.03e-21
383.843  2.00e-21
383.911  1.95e-21
383.978  1.91e-21
384.046  1.88e-21
384.114  1.85e-21
384.181  1.81e-21
384.249  1.81e-21
384.317  1.76e-21
384.384  1.72e-21
384.452  1.70e-21
384.519  1.64e-21
384.587  1.59e-21
384.655  1.53e-21
384.722  1.48e-21
384.790  1.42e-21
384.858  1.41e-21
384.925  1.37e-21
384.993  1.36e-21
385.061  1.32e-21
385.128  1.31e-21
385.196  1.31e-21
385.264  1.27e-21
385.331  1.23e-21
385.399  1.22e-21
385.467  1.18e-21
385.534  1.16e-21
385.602  1.14e-21
385.670  1.12e-21
385.737  1.11e-21
385.805  1.07e-21
385.873  1.05e-21
385.940  1.01e-21
386.008  1.01e-21
386.076  9.86e-22
386.143  9.74e-22
386.211  9.39e-22
386.279  9.20e-22
386.346  8.90e-22
386.414  8.41e-22
386.482  8.21e-22
386.549  7.99e-22
386.617  7.82e-22
386.685  7.62e-22
386.752  7.50e-22
386.820  7.33e-22
386.888  7.19e-22
386.955  7.05e-22
387.023  6.98e-22
387.091  6.73e-22
387.158  6.49e-22
387.226  6.37e-22
387.294  6.13e-22
387.361  5.98e-22
387.429  5.74e-22
387.497  5.49e-22
387.564  5.49e-22
387.632  4.82e-22
387.700  4.51e-22
387.767  4.48e-22
387.835  4.04e-22
387.903  4.08e-22
387.971  4.00e-22
388.038  3.77e-22
388.106  3.68e-22
388.174  3.17e-22
388.241  3.12e-22
388.309  3.23e-22
388.377  3.16e-22
388.444  2.96e-22
388.512  3.17e-22
388.580  3.12e-22
388.648  2.91e-22
388.715  2.77e-22
388.783  2.60e-22
388.851  2.38e-22
388.918  2.48e-22
388.986  2.29e-22
389.054  2.39e-22
389.122  1.94e-22
389.189  2.08e-22
389.257  1.54e-22
389.325  1.16e-22
389.392  1.05e-22
389.460  1.39e-22
389.528  9.24e-23
389.596  8.18e-23
389.663  1.00e-22
389.731  1.13e-22
389.799  9.18e-23
389.866  1.09e-22
389.934  8.34e-23
390.002  7.31e-23
390.070  7.65e-23
390.137  8.32e-23
390.205  1.21e-22
390.273  8.44e-23
390.341  9.15e-23
390.408  9.85e-23
390.476  1.11e-22
390.544  1.26e-22
390.612  1.11e-22
390.679  1.12e-22
390.747  1.15e-22
390.815  1.48e-22
390.883  1.54e-22
390.950  1.23e-22
391.018  1.15e-22
391.086  1.23e-22
391.153  1.45e-22
391.221  1.23e-22
391.289  1.45e-22
391.357  7.67e-23
391.424  1.12e-22
391.492  1.16e-22
391.560  9.57e-23
391.628  1.10e-22
391.695  9.40e-23
391.763  5.50e-23
391.831  3.14e-23
391.899  5.59e-23
391.966  4.82e-24
392.034  1.01e-24
392.102  0.00e+00
